Acc_X_Foot,Acc_Y_Foot,Acc_Z_Foot,Gyr_X_Foot,Gyr_Y_Foot,Gyr_Z_Foot,Acc_X_Shank,Acc_Y_Shank,Acc_Z_Shank,Gyr_X_Shank,Gyr_Y_Shank,Gyr_Z_Shank,Acc_X_Thigh,Acc_Y_Thigh,Acc_Z_Thigh,Gyr_X_Thigh,Gyr_Y_Thigh,Gyr_Z_Thigh,Acc_X_Trunk,Acc_Y_Trunk,Acc_Z_Trunk,Gyr_X_Trunk,Gyr_Y_Trunk,Gyr_Z_Trunk,Participant,Sex,Unable to walk on irregular surface,Musculoskeletal or neurological disease,Age,Weight(kg),Height(cm),Leg Length(cm),class
7.218952178955078,0.3157764971256256,15.265609741210938,-105.17414855957033,352.3428955078125,-17.185321807861328,3.583218097686768,4.241849899291992,-2.497952938079834,30.38808822631836,131.52259826660156,324.4110412597656,5.91020393371582,2.3975534439086914,-0.6752182841300964,68.9945297241211,-22.147581100463867,92.19200897216795,7.649942398071289,-1.0410828590393066,-0.2436015158891677,31.136451721191406,-4.504037380218506,14.772218704223633,132,1.0,0.0,0.0,23.0,68.2,163.0,83.0,1.0
8.574767112731934,0.079249195754528,15.693196296691896,-101.1768798828125,355.20166015625,-14.488091468811035,4.00764799118042,4.034141540527344,-2.044883251190185,52.15566635131836,128.08192443847656,336.7840881347656,5.288631916046143,3.2084617614746094,-0.9445204734802246,61.71461868286133,-25.961397171020508,82.6605453491211,7.948707580566406,-1.039093255996704,-0.5752657651901245,35.652870178222656,-5.6572442054748535,13.87777328491211,132,1.0,0.0,0.0,23.0,68.2,163.0,83.0,1.0
8.570429801940918,-0.3956573009490967,15.460983276367188,-101.4592056274414,352.7252197265625,-8.685832023620605,4.855301856994629,3.8551583290100098,-2.0461699962615967,65.39109802246094,128.91494750976562,347.3106689453125,5.039803504943848,4.330422401428223,-1.382082462310791,53.67391204833984,-25.883968353271484,74.2601089477539,8.028488159179688,-0.9107705354690552,-0.4713605344295501,39.65117263793945,-6.137616157531738,13.517742156982422,132,1.0,0.0,0.0,23.0,68.2,163.0,83.0,1.0
9.338587760925291,-0.6503189206123352,16.5199031829834,-95.73967742919922,343.2035522460937,-0.3912371695041656,5.910905361175537,3.598616600036621,-2.6466939449310303,87.38250732421875,133.58401489257812,355.8517150878906,4.582211017608643,5.176167964935303,-1.2722337245941162,42.09820175170898,-24.907066345214844,67.82135772705078,8.088665008544922,-0.8549617528915405,-0.3749544024467468,42.68898010253906,-7.390105247497559,13.635930061340332,132,1.0,0.0,0.0,23.0,68.2,163.0,83.0,1.0
11.019794464111328,-0.0090733170509338,18.68629646301269,-95.85611724853516,334.7880249023437,10.806879997253418,7.383906364440918,3.9536538124084473,-3.1515045166015625,108.84343719482422,138.71185302734375,364.1563415527344,4.319292545318604,5.114060401916504,-1.174646496772766,30.24339485168457,-23.55954933166504,59.50482177734375,7.970078945159912,-0.7112727165222168,-0.3170347511768341,45.26155853271485,-10.54501724243164,13.80327033996582,132,1.0,0.0,0.0,23.0,68.2,163.0,83.0,1.0
12.781641960144045,0.3934686779975891,19.85463523864746,-99.74153137207033,332.12213134765625,22.962581634521484,9.143631935119627,4.712113380432129,-4.020529270172119,125.1417999267578,147.04014587402344,367.3262023925781,4.309567451477051,5.071773529052734,-1.5350598096847534,19.706212997436523,-24.36600685119629,47.601707458496094,8.075085639953613,-0.448428213596344,-0.3361335694789886,49.1319465637207,-13.653265953063965,14.265767097473145,132,1.0,0.0,0.0,23.0,68.2,163.0,83.0,1.0
14.241230964660645,0.7110133767127991,18.45431327819824,-105.9194107055664,329.7268981933594,36.35427474975586,10.585447311401367,6.107378959655762,-3.780975818634033,128.31863403320312,156.05596923828125,365.024658203125,4.56146764755249,5.352686405181885,-1.8161309957504272,15.630321502685549,-21.35184669494629,36.11375427246094,7.898751735687256,-0.3122835159301758,-0.634392499923706,53.22872161865234,-17.119422912597656,14.963583946228027,132,1.0,0.0,0.0,23.0,68.2,163.0,83.0,1.0
14.97671604156494,1.224727988243103,16.0709228515625,-114.03154754638672,318.6622009277344,51.835933685302734,11.36998176574707,7.245163440704346,-3.4047696590423584,118.16236877441406,163.7665252685547,356.5506591796875,4.671592712402344,5.392148017883301,-1.2043102979660034,9.218981742858888,-15.9200439453125,26.779861450195312,7.883369445800781,-0.2075873464345932,-1.0162228345870972,56.49631118774414,-20.0125732421875,15.623238563537598,132,1.0,0.0,0.0,23.0,68.2,163.0,83.0,1.0
16.177743911743164,1.8683953285217283,14.70499038696289,-123.65729522705078,296.28533935546875,67.05894470214844,11.269224166870115,8.056025505065918,-3.720925331115722,100.81658172607422,172.46597290039062,345.47418212890625,4.675779819488525,4.600521087646484,-0.2309514880180359,-10.126299858093262,-14.53505039215088,18.60939216613769,7.911349773406982,-0.244498148560524,-1.2175631523132324,60.85985565185547,-20.71899604797364,15.63023567199707,132,1.0,0.0,0.0,23.0,68.2,163.0,83.0,1.0
17.885290145874023,2.165940999984741,13.64013671875,-129.79981994628906,271.7016296386719,78.80032348632812,10.416274070739746,9.180082321166992,-3.358342170715332,73.47339630126953,174.28465270996094,337.1701354980469,4.973023414611816,2.7509865760803223,0.6800787448883057,-25.829992294311523,-17.013334274291992,9.740052223205566,8.050893783569336,-0.1920274645090103,-1.4719245433807373,65.90484619140625,-21.534597396850582,15.27105712890625,132,1.0,0.0,0.0,23.0,68.2,163.0,83.0,1.0
19.851327896118164,2.109836339950561,13.487531661987305,-125.62616729736328,247.59353637695312,85.8991470336914,9.47144889831543,10.22512435913086,-2.962963342666626,43.42071914672852,170.55950927734375,329.5235900878906,5.898263454437256,-0.0746319890022277,1.8862477540969849,-31.816387176513672,-19.086843490600582,1.810313701629639,8.240190505981445,-0.2131511121988296,-1.7452152967453003,70.45338439941406,-21.80056381225586,13.940321922302246,132,1.0,0.0,0.0,23.0,68.2,163.0,83.0,1.0
22.4221248626709,2.653554677963257,15.197867393493652,-110.07611846923828,229.81529235839844,86.43658447265625,9.032360076904297,10.369810104370115,-3.624224185943604,19.583728790283203,164.98216247558594,319.466064453125,6.755398273468018,-4.038997173309326,2.592836856842041,-27.374589920043945,-21.03037452697754,-3.757856130599976,8.574504852294922,-0.1323079913854599,-1.8822338581085205,74.51034545898438,-20.65453338623047,12.026832580566406,132,1.0,0.0,0.0,23.0,68.2,163.0,83.0,1.0
25.38299560546875,3.2287590503692627,15.6820068359375,-88.28680419921875,227.2554473876953,81.05988311767578,8.752528190612793,10.329164505004885,-3.301441192626953,-0.9507834911346436,150.29251098632812,307.7951965332031,7.182562828063965,-8.64459228515625,1.6524837017059326,1.6634151935577393,-26.254573822021484,-11.674349784851074,8.991778373718262,-0.0472574867308139,-1.9422584772109983,75.7633285522461,-19.30737495422364,10.326729774475098,132,1.0,0.0,0.0,23.0,68.2,163.0,83.0,1.0
26.486202239990234,3.581226348876953,13.514514923095703,-62.68999099731445,231.2739715576172,69.63739776611328,9.020621299743652,9.989587783813477,-3.575668334960937,-19.5064697265625,134.18614196777344,289.133544921875,7.793839454650879,-11.37580680847168,0.7146966457366943,78.29875946044922,-22.88954734802246,-21.4664363861084,9.314007759094238,-0.0420608483254909,-1.9554951190948489,74.8543930053711,-17.59825325012207,8.478216171264648,132,1.0,0.0,0.0,23.0,68.2,163.0,83.0,1.0
27.102033615112305,3.884516477584839,11.157953262329102,-32.96806716918945,227.7888946533203,52.31610107421875,9.428003311157228,7.852897644042969,-4.4656758308410645,-30.22509956359864,111.8930892944336,265.72711181640625,8.492081642150879,-9.79292106628418,0.686980664730072,146.1887969970703,-13.864267349243164,-21.45022392272949,9.784881591796877,-0.1107841581106185,-2.137113094329834,75.8908920288086,-18.315889358520508,6.572276592254639,132,1.0,0.0,0.0,23.0,68.2,163.0,83.0,1.0
27.802833557128903,4.540993690490723,9.236255645751951,-8.911173820495605,217.1116180419922,30.189987182617188,10.14111328125,5.509516716003418,-4.605108261108398,-37.77232360839844,85.25627136230469,242.4911956787109,8.239577293395996,-9.298755645751951,-1.112377405166626,159.17587280273438,-10.458106994628906,-21.883752822875977,10.598912239074709,-0.0402620248496532,-2.007242441177368,73.57295989990234,-18.32577133178711,5.168069362640381,132,1.0,0.0,0.0,23.0,68.2,163.0,83.0,1.0
28.98494529724121,5.952167987823486,6.642754077911377,9.661356925964355,204.83203125,11.789901733398438,11.218302726745604,4.491968154907227,-3.881852388381958,-32.93031692504883,64.09244537353516,220.728271484375,8.069838523864746,-7.478039741516113,-3.417578220367432,158.49745178222656,-15.357149124145508,-29.484161376953125,11.281705856323242,-0.1291143894195556,-1.9188891649246216,67.3974838256836,-18.748214721679688,4.458778858184815,132,1.0,0.0,0.0,23.0,68.2,163.0,83.0,1.0
29.954364776611328,7.932441234588623,3.427289724349976,8.421631813049316,187.23789978027344,0.8762132525444031,12.139467239379885,4.039289951324463,-4.526161193847656,-20.17406463623047,53.26609802246094,196.41421508789065,8.860614776611328,-4.480309963226318,-3.712258100509644,119.21920776367188,-23.62753868103028,-40.403770446777344,11.941661834716797,0.0002285758964717,-1.7488534450531006,59.08278274536133,-18.95723533630371,4.637997627258301,132,1.0,0.0,0.0,23.0,68.2,163.0,83.0,1.0
30.134552001953125,8.173210144042969,-1.802939176559448,-4.212433815002441,160.3994140625,-10.109067916870115,11.853486061096191,4.195975303649902,-4.704864978790283,-3.8164002895355225,43.98483657836914,164.20181274414062,10.353708267211914,-2.9644851684570312,-4.69580602645874,39.34676742553711,-16.08043670654297,-52.00318145751953,12.449275016784668,0.2065925896167755,-1.6802661418914795,50.68787384033203,-20.330841064453125,5.060143947601318,132,1.0,0.0,0.0,23.0,68.2,163.0,83.0,1.0
29.47958946228028,6.013372898101807,-8.379112243652344,-7.517398357391357,109.23424530029295,-20.16856002807617,10.930295944213867,3.874540328979492,-5.017398834228516,-3.888205289840698,34.96371078491211,120.84943389892578,9.983623504638672,-3.835949659347534,-5.02470588684082,-23.989397048950195,-4.685847282409668,-60.83804702758789,12.839981079101562,0.5296862125396729,-1.788240671157837,44.41044998168945,-21.286705017089844,4.530950546264648,132,1.0,0.0,0.0,23.0,68.2,163.0,83.0,1.0
28.86934280395508,3.356451988220215,-14.177885055541992,20.46720314025879,31.021209716796875,-23.04826545715332,9.806510925292969,3.0461974143981934,-3.749845743179321,-11.954900741577148,15.070131301879885,72.01712799072266,9.603002548217772,-5.745478630065918,-4.03201961517334,-54.02264022827149,-11.295889854431152,-68.37321472167969,13.090508460998535,0.8012942671775818,-1.8458547592163088,40.654083251953125,-22.771560668945312,3.822022676467896,132,1.0,0.0,0.0,23.0,68.2,163.0,83.0,1.0
31.507476806640625,3.831675291061402,-16.191511154174805,70.05565643310547,-73.03414916992188,-18.798768997192383,9.543135643005373,3.146305084228516,-3.039492607116699,-16.41895294189453,0.6062381267547607,22.2291202545166,10.085997581481934,-7.627532958984375,-2.39595913887024,-63.24691009521485,-13.814799308776855,-67.47229766845703,13.196711540222168,0.7402649521827698,-2.092660665512085,39.19326400756836,-21.556846618652344,2.76525354385376,132,1.0,0.0,0.0,23.0,68.2,163.0,83.0,1.0
35.52330017089844,6.734851837158203,-15.816537857055664,103.1636734008789,-191.92330932617188,-11.964987754821776,8.381683349609375,4.740811347961426,-4.026104927062988,-11.623170852661133,-6.737303256988525,-23.3565731048584,11.15410614013672,-7.536582946777344,-0.5395047664642334,-53.63447189331055,-14.211055755615234,-61.329620361328125,13.013392448425291,0.6394426226615906,-2.020229816436768,35.71977996826172,-19.188724517822266,1.7618646621704102,132,1.0,0.0,0.0,23.0,68.2,163.0,83.0,1.0
28.636335372924805,9.0027437210083,-12.930098533630373,61.07073593139648,-205.40806579589844,-46.03453826904297,6.991818904876709,5.621942043304443,-5.327892303466797,-15.980986595153809,-26.850154876708984,-65.89898681640625,11.53476619720459,-6.7999114990234375,0.4337049424648285,-63.06201553344727,-17.369556427001953,-46.55312347412109,12.685154914855955,0.5708097219467163,-1.2070772647857666,32.598880767822266,-22.20669937133789,1.3633065223693848,132,1.0,0.0,0.0,23.0,68.2,163.0,83.0,1.0
-1.3392211198806765,7.0468525886535645,17.023366928100586,-162.53076171875,-157.3407440185547,-63.09204864501953,7.3190836906433105,5.736895084381104,-6.098062038421631,-5.3914713859558105,-54.010475158691406,-110.4264678955078,11.185102462768556,-6.511562824249268,-0.6729535460472107,-88.06796264648438,-21.59282875061035,-27.99259757995605,12.958392143249512,0.7350419163703918,0.403207391500473,31.694488525390625,-21.039276123046875,1.7502866983413696,132,1.0,0.0,0.0,23.0,68.2,163.0,83.0,1.0
-7.286659240722656,-15.182599067687988,24.670574188232425,-57.35365295410156,-208.552978515625,-94.7215576171875,9.52452278137207,4.949855327606201,-7.784131050109863,-4.526915073394775,-82.03583526611328,-155.71568298339844,10.128510475158691,-6.954352855682373,-2.894822359085083,-117.45075988769533,-24.848806381225582,-16.363210678100586,13.60653305053711,1.4755579233169556,2.639644145965576,25.402284622192383,-16.79711151123047,5.774413585662842,132,1.0,0.0,0.0,23.0,68.2,163.0,83.0,1.0
-5.308639526367188,-20.676746368408203,27.85866355895996,96.42315673828124,-277.26251220703125,-64.6587142944336,14.092726707458496,0.6215285658836365,-6.369935035705566,-85.28423309326172,-126.05320739746094,-173.32229614257812,9.118260383605955,-6.933330059051514,-5.6423187255859375,-125.29192352294922,-26.87891387939453,-22.01065254211425,14.313804626464844,2.596378803253174,4.721851825714111,6.600522994995117,-17.66017723083496,15.065698623657228,132,1.0,0.0,0.0,23.0,68.2,163.0,83.0,1.0
15.25515842437744,-5.377045154571533,17.00796890258789,240.24526977539065,-286.30499267578125,-18.334152221679688,22.526123046875,-7.333041667938232,4.385570049285889,-253.0448303222656,-149.8529510498047,-121.67581939697266,10.50706386566162,-5.67671012878418,-9.346010208129885,-72.4987564086914,-29.8867130279541,-45.39056015014648,15.186515808105469,3.7864503860473633,6.078238010406494,-7.739428520202637,-27.007530212402344,26.366342544555664,132,1.0,0.0,0.0,23.0,68.2,163.0,83.0,1.0
13.7938232421875,2.5062508583068848,16.648508071899414,90.56778717041016,-220.78160095214844,17.870851516723633,31.375118255615234,-16.718603134155273,11.454524040222168,-264.8229064941406,-85.16472625732422,-9.023012161254885,15.87681007385254,-2.0162899494171143,-7.86113691329956,47.84116363525391,-39.159515380859375,-76.97197723388672,15.608654022216797,4.871860027313232,5.56781816482544,-11.187788009643556,-36.63272476196289,35.79010772705078,132,1.0,0.0,0.0,23.0,68.2,163.0,83.0,1.0
12.854307174682615,5.83748197555542,23.788930892944336,87.06477355957031,-181.77639770507807,34.13824462890625,25.14961242675781,-13.530526161193848,4.609586238861084,68.68832397460938,10.282751083374023,-13.941568374633787,24.355939865112305,3.57539963722229,2.1492981910705566,106.77293395996094,-36.90929412841797,-90.39185333251952,14.811070442199709,4.4661641120910645,4.25763463973999,-14.803564071655272,-39.42335510253906,42.36294555664063,132,1.0,0.0,0.0,23.0,68.2,163.0,83.0,1.0
8.297330856323242,13.201462745666504,23.99113655090332,102.3255386352539,-126.7399673461914,29.8750114440918,13.882295608520508,-1.4823144674301147,-1.7630380392074585,186.4394073486328,45.51195907592773,-81.78905487060547,23.14783477783203,1.358247995376587,13.028467178344728,-3.0017294883728027,5.406261444091797,-61.8305549621582,12.722288131713867,2.7828171253204346,3.707102298736572,-13.228100776672363,-35.942588806152344,44.61938095092773,132,1.0,0.0,0.0,23.0,68.2,163.0,83.0,1.0
3.792287588119507,10.72206974029541,14.32324504852295,17.484790802001953,-99.04129791259766,7.934003353118896,2.504074811935425,2.523912191390991,-2.1396546363830566,161.7819061279297,-13.68777084350586,-133.9466552734375,18.80572891235352,-10.643838882446287,3.525357723236084,-136.35171508789062,6.297824859619141,-12.554320335388184,10.464097023010254,0.2082755863666534,3.44356632232666,-1.1412456035614014,-38.74628448486328,42.7264518737793,132,1.0,0.0,0.0,23.0,68.2,163.0,83.0,1.0
0.9801440238952636,1.5391807556152344,10.307889938354492,-39.37870407104492,-106.11363983154295,9.090721130371094,7.509571552276611,8.18232536315918,-0.0120685398578643,108.0057601928711,-85.17932891845703,-160.33509826660156,12.253862380981444,-20.744569778442383,-11.450221061706545,-20.83319854736328,11.847111701965332,-33.107276916503906,9.014068603515623,-1.6909301280975342,2.086681842803955,12.10344123840332,-42.29778289794922,38.9907341003418,132,1.0,0.0,0.0,23.0,68.2,163.0,83.0,1.0
3.757921934127808,-3.9724369049072266,12.393199920654297,-3.935528516769409,-110.38574981689452,9.160619735717772,12.130029678344728,8.892803192138672,-3.0132319927215576,40.384498596191406,-68.49524688720703,-141.5172882080078,8.550081253051758,-6.379768371582031,-7.105395793914795,143.73028564453125,28.299352645874023,-65.79786682128906,8.040790557861328,-3.1647732257843018,0.8129538297653198,15.888666152954102,-38.67247009277344,34.6072883605957,132,1.0,0.0,0.0,23.0,68.2,163.0,83.0,1.0
6.254985332489014,-3.537331342697144,14.726567268371582,31.11754608154297,-94.72400665283205,8.10892391204834,9.66769790649414,8.109237670898438,-2.181750774383545,-11.930867195129396,-44.10445022583008,-112.07095336914062,6.760245323181152,4.19070291519165,-3.054711103439331,195.083740234375,27.337194442749023,-49.0858154296875,7.584022045135498,-4.109454154968262,0.6129586100578308,16.328378677368164,-32.6446418762207,30.49115753173828,132,1.0,0.0,0.0,23.0,68.2,163.0,83.0,1.0
6.863032817840576,-0.4327951967716217,14.949492454528809,41.70463562011719,-66.41692352294922,8.882553100585938,6.634366512298584,3.857593297958374,-1.035538673400879,-23.738052368164062,-48.066837310791016,-100.96035766601562,5.642457962036133,12.367156982421877,1.1333980560302734,202.08566284179688,6.656259059906006,-34.27558517456055,7.436471462249756,-3.935966014862061,0.4952996671199798,16.38095474243164,-25.765575408935547,27.0335693359375,132,1.0,0.0,0.0,23.0,68.2,163.0,83.0,1.0
3.531085252761841,3.2703962326049805,12.92751407623291,34.5485954284668,-43.67201614379883,8.866929054260254,7.546346664428711,-0.8694368004798889,-1.4815956354141235,66.38325500488281,-46.22542953491211,-95.37694549560548,5.895242691040039,17.145925521850586,3.5771324634552,110.28962707519533,-8.667486190795898,-34.8621940612793,8.25195026397705,-3.4231441020965576,0.5492052435874939,15.535061836242676,-17.67750358581543,23.24690055847168,132,1.0,0.0,0.0,23.0,68.2,163.0,83.0,1.0
2.3758931159973145,2.948310375213623,12.112719535827637,4.244208812713623,-41.71890640258789,7.406700611114502,9.13241481781006,-1.4506735801696775,-3.211294174194336,144.00587463378906,-45.01314926147461,-80.31249237060547,7.0750412940979,13.163930892944336,1.5698022842407229,-17.723440170288086,-6.228572368621826,-61.837738037109375,9.412158966064451,-2.406310558319092,0.7279797792434692,15.473788261413574,-10.679941177368164,21.50364112854004,132,1.0,0.0,0.0,23.0,68.2,163.0,83.0,1.0
3.467781543731689,0.9538408517837524,12.154048919677734,-0.5938538312911987,-35.848785400390625,6.1986260414123535,9.418953895568848,0.6874222755432129,-6.335517883300781,153.69827270507812,-44.26307678222656,-63.76636505126953,7.533345699310303,8.064194679260254,-1.7008562088012695,-85.58467102050781,3.184965848922729,-84.07356262207031,10.931732177734377,-1.5721412897109983,1.008874535560608,15.42493724822998,-1.2815576791763306,19.9774112701416,132,1.0,0.0,0.0,23.0,68.2,163.0,83.0,1.0
3.3269834518432617,0.4931666254997253,11.610631942749023,1.620459794998169,-25.24316024780273,5.031150341033936,10.067928314208984,4.684582233428955,-5.806396484375,121.47173309326172,-44.32639694213867,-55.59352111816406,8.213692665100098,3.5007030963897705,-3.651212215423584,-113.44100189208984,-4.672390937805176,-88.58728790283203,11.987971305847168,-1.281641125679016,1.5307550430297852,14.428109169006348,9.14737319946289,18.11420440673828,132,1.0,0.0,0.0,23.0,68.2,163.0,83.0,1.0
2.319299459457397,0.8000683784484863,10.976852416992188,4.681849479675293,-19.94562339782715,4.260341167449951,11.107565879821776,8.574503898620605,-5.428701877593994,59.493839263916016,-43.190425872802734,-51.63821029663086,10.101078987121582,0.2124178558588028,-4.566074371337891,-100.04427337646484,-10.931442260742188,-87.7101821899414,12.553400039672852,-1.017103672027588,1.5079818964004517,15.33000946044922,6.095691204071045,15.139568328857422,132,1.0,0.0,0.0,23.0,68.2,163.0,83.0,1.0
2.6524274349212646,0.6594375371932983,11.094152450561523,1.8964529037475584,-16.773780822753906,3.153292417526245,10.606786727905272,12.652731895446776,-5.271545886993408,-20.279735565185547,-40.64175796508789,-53.32843780517578,11.20386791229248,-0.0563541129231452,-4.05094575881958,-69.36415100097656,-7.368535995483398,-83.42636108398438,12.605329513549805,-0.7234907746315002,1.332392930984497,15.22870635986328,7.081660270690918,12.110991477966309,132,1.0,0.0,0.0,23.0,68.2,163.0,83.0,1.0
2.385657787322998,-0.2460917979478836,10.397282600402832,3.8558390140533447,-13.070598602294922,1.83177649974823,9.043107986450195,14.505797386169434,-2.830745220184326,-123.07360076904295,-44.404293060302734,-72.36782836914062,10.884881019592283,0.2250053733587265,-4.262853145599365,-51.17444610595703,-4.24212121963501,-77.33392333984375,11.85444450378418,-0.6901949644088745,1.5718122720718384,14.826153755187988,8.630297660827637,9.32462215423584,132,1.0,0.0,0.0,23.0,68.2,163.0,83.0,1.0
2.065721273422241,0.1945695430040359,10.370190620422363,9.918447494506836,-12.616869926452637,1.263652801513672,8.907267570495605,8.704336166381836,-3.108174562454224,-204.97817993164065,-45.43970489501953,-86.52864837646484,9.71928882598877,0.812142014503479,-4.689801692962647,-33.493896484375,-2.7783281803131104,-74.12555694580078,10.923571586608888,-0.2579053938388824,1.7794325351715088,14.361150741577148,5.000988006591797,6.526777744293213,132,1.0,0.0,0.0,23.0,68.2,163.0,83.0,1.0
1.902978777885437,0.518692672252655,10.351190567016602,7.961903572082519,-13.705371856689451,1.2120145559310913,9.2087984085083,0.8813766241073608,-3.3540735244750977,-191.92352294921875,-54.124267578125,-85.95972442626953,8.974727630615234,1.4077974557876587,-4.275214672088623,-23.56287384033203,-3.1976592540740967,-73.13373565673828,10.137171745300291,-0.1101633310317993,1.5171587467193604,12.92513656616211,1.3110519647598269,2.8505446910858154,132,1.0,0.0,0.0,23.0,68.2,163.0,83.0,1.0
1.8754518032073968,0.7066541314125061,10.437582015991213,3.249371290206909,-15.143406867980955,2.704991817474365,10.570009231567385,-5.471244812011719,-1.329267144203186,-154.64488220214844,-47.681732177734375,-69.83552551269531,8.646679878234863,1.535640835762024,-3.1420652866363525,-26.574743270874023,-3.745782136917114,-73.76971435546875,9.78195571899414,0.083342008292675,1.042696475982666,11.828771591186523,-0.7559273838996887,-1.301920771598816,132,1.0,0.0,0.0,23.0,68.2,163.0,83.0,1.0
1.904234766960144,0.7644558548927307,10.478879928588867,5.895988941192627,-19.55618095397949,3.248347043991089,10.719968795776367,-10.336978912353516,-1.1725077629089355,-98.0263214111328,-27.899991989135746,-65.73268127441406,8.788634300231934,0.7001831531524658,-2.401017189025879,-38.88540649414063,-5.690403938293457,-74.85440063476562,9.779061317443848,0.3270146548748016,0.8180697560310364,9.34531593322754,-0.2502254843711853,-6.995120048522949,132,1.0,0.0,0.0,23.0,68.2,163.0,83.0,1.0
2.1449782848358154,0.9769099950790404,10.55717945098877,1.3517659902572632,-19.438045501708984,4.072792530059815,11.008305549621582,-11.933088302612305,-1.6468989849090576,-30.624515533447266,-20.93785858154297,-64.81404876708984,9.371646881103516,-0.7254381775856018,-1.8922418355941768,-47.73521423339844,-5.599143981933594,-75.00167083740234,9.495156288146973,0.4772872030735016,0.6726802587509155,3.8872554302215576,1.0081380605697632,-12.895950317382812,132,1.0,0.0,0.0,23.0,68.2,163.0,83.0,1.0
1.9372631311416624,0.4905248582363128,10.27711009979248,-2.32068943977356,-21.58724021911621,4.473298072814941,11.082364082336426,-9.244327545166016,-1.5550215244293213,38.680625915527344,-16.016286849975586,-61.12345123291016,9.90466022491455,-1.9268330335617063,-1.85825514793396,-48.43863296508789,-2.354412794113159,-73.61122131347656,8.90954303741455,0.5925824046134949,0.5784405469894409,-2.8544766902923584,0.6868075132369995,-17.94636344909668,132,1.0,0.0,0.0,23.0,68.2,163.0,83.0,1.0
1.8597548007965088,0.1108879372477531,10.122393608093262,-1.876922607421875,-25.454532623291016,4.439973831176758,10.180611610412598,-4.519360542297363,-2.4049787521362305,83.52393341064453,-10.49815273284912,-55.60922622680664,9.9523286819458,-2.545457601547241,-2.2423572540283203,-37.14019775390625,0.189239040017128,-71.37438201904297,8.458049774169922,0.6141648292541504,0.4084126949310303,-9.117417335510254,0.2386863529682159,-21.86549949645996,132,1.0,0.0,0.0,23.0,68.2,163.0,83.0,1.0
2.317415952682495,0.3988350629806518,10.351791381835938,1.524483561515808,-26.50897216796875,3.9948244094848633,9.28937816619873,0.6159877181053162,-2.9795258045196533,96.49176025390624,-10.920831680297852,-49.133975982666016,9.703132629394531,-2.0948469638824463,-2.47347354888916,-19.050073623657227,1.4282563924789429,-69.86328887939453,8.073564529418945,0.6225424408912659,0.2016171216964721,-13.748371124267578,1.2594397068023682,-23.652427673339844,132,1.0,0.0,0.0,23.0,68.2,163.0,83.0,1.0
2.3538472652435303,0.4192821383476257,10.358596801757812,0.1720509231090545,-25.810773849487305,3.3048529624938965,8.977001190185547,4.878030776977539,-2.480851411819458,78.50979614257812,-13.730879783630373,-44.10817337036133,9.214558601379396,-1.000858187675476,-2.3858964443206787,-4.187522411346436,2.528468608856201,-69.60286712646484,7.712991237640381,0.6763843297958374,0.1475276201963424,-18.38435173034668,1.3449918031692505,-23.245758056640625,132,1.0,0.0,0.0,23.0,68.2,163.0,83.0,1.0
2.394348621368408,0.3395793437957763,10.348865509033203,0.5559059381484985,-25.449663162231445,2.510016918182373,8.635931015014648,7.283382415771484,-1.976946830749512,41.88100814819336,-15.988885879516602,-44.68468475341797,8.80594539642334,-0.1003515124320983,-2.0922300815582275,1.5380648374557495,2.4100797176361084,-70.25848388671875,7.6302971839904785,0.7253282070159912,0.030669892206788,-22.25371742248535,0.4619403779506683,-22.060277938842773,132,1.0,0.0,0.0,23.0,68.2,163.0,83.0,1.0
2.554715394973755,0.5259864330291748,10.498417854309082,2.611833333969116,-24.31256675720215,1.754217267036438,8.425432205200195,7.68186092376709,-1.7120909690856934,-6.053851127624512,-21.877243041992188,-52.18385696411133,8.741484642028809,0.2348689883947372,-2.05647349357605,1.812240719795227,1.018375277519226,-71.1597671508789,7.644847393035889,0.7206239104270935,0.0181619897484779,-26.14193725585937,1.4264963865280151,-21.034557342529297,132,1.0,0.0,0.0,23.0,68.2,163.0,83.0,1.0
2.7736783027648926,0.4631978273391723,10.40945053100586,1.1351463794708252,-21.03307342529297,1.1754376888275146,8.916690826416016,5.844310283660889,-2.023143768310547,-47.845985412597656,-25.852582931518555,-59.32466125488281,9.018669128417969,0.3505667150020599,-2.0005252361297607,1.6360909938812256,-1.1255329847335815,-71.24117279052734,7.692984580993652,0.915653109550476,-0.0507302209734916,-29.48719024658203,1.2875137329101562,-19.294301986694336,132,1.0,0.0,0.0,23.0,68.2,163.0,83.0,1.0
2.611985206604004,0.238579973578453,10.242019653320312,2.13563871383667,-18.422237396240234,0.5508087277412415,9.494146347045898,3.004551649093628,-2.378620147705078,-74.44153594970703,-27.19701766967773,-62.28063583374024,9.321179389953612,0.4666933119297027,-2.0340046882629395,-0.3974193334579468,-2.7624170780181885,-69.99384307861328,7.894869327545166,0.913452923297882,-0.2008552700281143,-33.632225036621094,1.5916577577590942,-16.8560848236084,132,1.0,0.0,0.0,23.0,68.2,163.0,83.0,1.0
2.493692636489868,0.1478651463985443,10.085349082946776,4.493684768676758,-17.04475212097168,-0.0992167517542839,9.822186470031738,-0.0317922979593277,-2.249598503112793,-82.37129974365234,-25.902326583862305,-61.21063995361328,9.35439109802246,0.3249938786029815,-2.219038486480713,0.8189416527748108,-3.071838140487671,-69.05178833007812,7.7020583152771,0.9384939074516296,-0.3386400043964386,-38.33255386352539,1.6821022033691406,-15.275175094604492,132,1.0,0.0,0.0,23.0,68.2,163.0,83.0,1.0
2.6733787059783936,0.2625133097171783,10.072579383850098,7.089330196380615,-15.226704597473145,-0.8577569127082825,9.978068351745604,-2.502976417541504,-2.304643392562866,-71.7208251953125,-23.18402671813965,-57.25276184082031,9.506412506103516,0.7632677555084229,-2.019235372543335,-4.20102071762085,-4.412056922912598,-67.33309173583984,7.692205429077148,0.7925817370414734,-0.3829191625118255,-42.737247467041016,2.093621730804444,-14.114185333251951,132,1.0,0.0,0.0,23.0,68.2,163.0,83.0,1.0
2.574136257171631,0.2571654021739959,10.039332389831545,8.245096206665039,-13.369699478149414,-1.677284598350525,9.59317398071289,-3.852259874343872,-2.202433586120605,-47.10780715942383,-20.90900993347168,-53.23236083984375,9.449764251708984,0.668563723564148,-2.1184661388397217,-12.414307594299316,-3.97159194946289,-65.05227661132812,7.716098785400391,0.7070909142494202,-0.360809713602066,-46.012943267822266,2.308833360671997,-12.88498592376709,132,1.0,0.0,0.0,23.0,68.2,163.0,83.0,1.0
2.665454149246216,0.2539210617542267,9.990793228149414,10.68920612335205,-11.974926948547363,-2.4225821495056152,9.10166358947754,-3.78902816772461,-2.0963799953460693,-17.121360778808594,-20.745580673217773,-51.38336944580078,9.241859436035156,0.4208646714687347,-2.0958077907562256,-15.286234855651855,-3.512736558914185,-64.28977966308594,7.699282169342041,0.5536351203918457,-0.3813112676143646,-48.47506713867188,1.1954060792922974,-11.315394401550291,132,1.0,0.0,0.0,23.0,68.2,163.0,83.0,1.0
2.5746042728424072,0.2898610234260559,10.099364280700684,12.25964069366455,-10.607817649841309,-3.335371255874634,8.874528884887695,-2.3005475997924805,-1.879683494567871,7.440903663635254,-22.46770095825196,-50.77312088012695,9.130475997924805,0.1876018494367599,-1.7888963222503662,-17.016483306884766,-3.256234645843506,-63.393043518066406,7.746798515319824,0.4241961240768432,-0.4427804946899414,-51.07892608642578,0.2590757608413696,-9.510485649108888,132,1.0,0.0,0.0,23.0,68.2,163.0,83.0,1.0
2.6109366416931152,0.2505856454372406,10.066736221313477,13.70228672027588,-9.24326992034912,-3.9519057273864746,8.901278495788574,-0.25361368060112,-1.756926655769348,16.94586181640625,-24.16831588745117,-49.34938049316406,9.006133079528809,-0.272954523563385,-1.6078083515167236,-18.36210823059082,-2.846123695373535,-62.52605056762695,7.774569511413574,0.2839992940425873,-0.338579386472702,-54.34386444091797,-1.3246947526931765,-7.838283538818359,132,1.0,0.0,0.0,23.0,68.2,163.0,83.0,1.0
2.659379243850708,0.213788166642189,10.085784912109377,14.858642578125,-8.264806747436523,-4.813620090484619,8.931818008422852,1.3721342086791992,-1.637745022773743,15.444379806518556,-24.18893814086914,-48.957820892333984,8.876672744750977,-0.715663731098175,-1.607860088348389,-15.703618049621582,-3.4190127849578857,-61.27047729492188,7.870838642120361,0.1740719974040985,-0.1617618799209594,-57.685150146484375,-3.7539312839508057,-6.192183494567871,132,1.0,0.0,0.0,23.0,68.2,163.0,83.0,1.0
2.574099540710449,0.2580329179763794,10.056200981140137,16.278799057006836,-7.046874523162842,-5.2741899490356445,8.911717414855957,2.382558822631836,-1.5626001358032229,4.088043689727783,-25.549365997314453,-50.55674362182617,8.962461471557617,-0.7133822441101074,-1.4855024814605713,-13.025254249572754,-4.660256862640381,-61.06040954589844,7.803187370300293,0.184459775686264,-0.057396076619625,-60.177005767822266,-7.451948165893555,-4.737522602081299,132,1.0,0.0,0.0,23.0,68.2,163.0,83.0,1.0
2.5496535301208496,0.406171590089798,10.086200714111328,17.440458297729492,-6.739068984985352,-5.864343166351318,8.995325088500977,2.3584177494049072,-1.5791586637496948,-9.002574920654297,-26.323362350463867,-53.9499626159668,9.078791618347168,-0.6993892192840576,-1.4890729188919067,-14.48262882232666,-4.727083683013916,-58.334693908691406,7.688870906829834,0.0782739073038101,-0.4263260960578918,-61.90098571777344,-12.784775733947754,-3.9574134349823,132,1.0,0.0,0.0,23.0,68.2,163.0,83.0,1.0
2.498471975326538,0.3717077970504761,10.122552871704102,16.605022430419922,-6.861171722412109,-6.327805995941162,9.22155475616455,1.773028016090393,-1.5505436658859253,-19.91653823852539,-27.63331794738769,-56.48274230957031,9.026464462280272,-1.4130412340164185,-1.5473629236221311,-12.493520736694336,-6.088329315185547,-57.4986572265625,7.701082229614258,0.178333505988121,-1.003949522972107,-63.17494201660156,-18.05797576904297,-3.0349907875061035,132,1.0,0.0,0.0,23.0,68.2,163.0,83.0,1.0
2.467637062072754,0.4796663522720337,10.181941986083984,16.413223266601562,-7.622325420379639,-6.4920196533203125,9.47317886352539,1.0666853189468384,-1.3488765954971311,-27.29865074157715,-28.234983444213867,-57.60561752319336,9.365690231323242,-1.5186216831207275,-1.4043586254119873,-6.825742721557617,-7.698499202728271,-60.360084533691406,7.830106258392334,0.3028194308280945,-1.42822265625,-66.01869201660156,-19.57698631286621,-1.836573600769043,132,1.0,0.0,0.0,23.0,68.2,163.0,83.0,1.0
2.3374345302581787,0.4084557890892029,10.144034385681152,14.37202262878418,-9.270140647888184,-6.700442314147949,9.733224868774414,0.3681740760803222,-1.2801271677017212,-29.40369415283203,-28.83275604248047,-58.49260711669922,9.624833106994627,-1.4703333377838137,-1.471521258354187,-3.1793131828308105,-7.691684246063232,-60.620750427246094,7.938112258911133,0.5725224018096924,-1.5844589471817017,-69.9159164428711,-21.16526985168457,-0.0277659613639116,132,1.0,0.0,0.0,23.0,68.2,163.0,83.0,1.0
2.5487537384033203,0.490334153175354,10.171485900878906,14.245847702026367,-10.92499828338623,-6.315126895904541,10.153977394104004,0.0263633467257022,-1.1174030303955078,-28.0968017578125,-28.485885620117188,-59.96565246582031,9.533308029174805,-1.9286868572235107,-1.4694957733154297,2.743908643722534,-7.682542324066162,-60.2745361328125,8.12275218963623,0.7062510251998901,-1.406893610954285,-74.17191314697266,-22.491464614868164,1.3899766206741333,132,1.0,0.0,0.0,23.0,68.2,163.0,83.0,1.0
2.461800575256348,0.5536060333251953,10.07091999053955,11.873199462890623,-11.651494979858398,-6.127835750579834,10.23945140838623,-0.2539142668247223,-0.9070444703102112,-25.0875301361084,-28.24424362182617,-61.80721664428711,9.322517395019531,-2.051456451416016,-1.2966816425323486,11.64744758605957,-8.945687294006348,-61.5866813659668,8.346624374389648,0.9363128542900084,-1.2112460136413574,-78.66474151611328,-23.6413631439209,2.913546800613404,132,1.0,0.0,0.0,23.0,68.2,163.0,83.0,1.0
2.4640800952911377,0.5048983693122864,10.047027587890623,10.779241561889648,-12.981771469116213,-5.911882400512695,10.08987808227539,-0.3610257804393768,-0.6500874161720276,-22.340805053710938,-28.732431411743164,-64.20252990722656,9.220687866210938,-1.7018983364105225,-0.9971545934677124,15.463295936584473,-10.51233959197998,-63.181373596191406,8.472285270690918,0.845952570438385,-1.3163273334503174,-81.70588684082031,-25.616117477416992,3.850036859512329,132,1.0,0.0,0.0,23.0,68.2,163.0,83.0,1.0
2.392008066177368,0.4912553131580353,10.091546058654783,10.712979316711426,-15.083370208740234,-6.053683757781982,9.676037788391112,-0.3648874759674072,-0.8495643138885498,-20.661380767822266,-30.294252395629883,-66.9196548461914,9.243961334228516,-1.5949866771697998,-0.7570862770080566,16.131343841552734,-11.073089599609377,-64.26871490478516,8.625955581665039,0.8556506633758545,-1.6745907068252563,-85.02162170410156,-27.41224479675293,5.130452632904053,132,1.0,0.0,0.0,23.0,68.2,163.0,83.0,1.0
2.451079130172729,0.4479575455188751,10.052571296691896,10.232429504394531,-16.68797492980957,-6.042771816253662,9.56935691833496,-0.5199849605560303,-0.909414529800415,-21.78988075256348,-32.7175407409668,-69.82967376708984,9.20397663116455,-1.4204216003417969,-0.6681810617446899,13.585355758666992,-11.58619499206543,-63.758060455322266,8.790511131286621,0.5765356421470642,-2.236112117767334,-91.6246337890625,-27.079509735107425,6.3361029624938965,132,1.0,0.0,0.0,23.0,68.2,163.0,83.0,1.0
2.2661852836608887,0.329656720161438,9.99627685546875,9.864072799682615,-20.016881942749023,-6.697422027587891,9.510221481323242,-0.992858111858368,-1.0791175365447998,-22.99894523620605,-33.64848327636719,-73.17379760742188,9.098566055297852,-1.444041728973389,-0.8627462983131409,10.636171340942385,-11.42092990875244,-62.75627899169922,9.0260009765625,0.0833685770630836,-2.499523401260376,-98.0058822631836,-24.080951690673828,6.79399299621582,132,1.0,0.0,0.0,23.0,68.2,163.0,83.0,1.0
2.6304705142974854,0.6051302552223206,10.30298900604248,10.58764934539795,-21.85885429382324,-6.644809722900391,9.4806489944458,-1.3352000713348389,-1.4070013761520386,-22.832538604736328,-35.02207565307617,-77.16246032714844,8.813161849975586,-1.4109065532684326,-0.9768064022064208,6.816662311553955,-11.107406616210938,-60.01495361328125,9.192980766296388,0.0354226790368557,-2.654273271560669,-103.47502136230467,-21.640832901000977,5.694471836090088,132,1.0,0.0,0.0,23.0,68.2,163.0,83.0,1.0
2.707709550857544,0.5739675760269165,10.32749366760254,7.309257030487059,-22.67180061340332,-6.678493499755859,9.586698532104492,-1.2448933124542236,-1.5301480293273926,-23.57878875732422,-37.30258560180664,-81.49580383300781,8.543705940246582,-1.329965114593506,-1.0051472187042236,0.7646128535270691,-11.530218124389648,-56.9747200012207,9.55160140991211,-0.5718030333518982,-2.591454267501831,-103.2754364013672,-15.746219635009766,3.979171276092529,132,1.0,0.0,0.0,23.0,68.2,163.0,83.0,1.0
2.779866933822632,0.6934345364570618,10.3298921585083,7.413966178894043,-23.066307067871094,-6.445427417755127,9.83121395111084,-0.7792137861251831,-1.0658457279205322,-24.48617172241211,-39.33353805541992,-86.42134857177734,8.756404876708984,-1.247828722000122,-1.0282270908355713,-8.303528785705566,-11.482929229736328,-52.63248062133789,9.75572109222412,-0.6348168253898621,-2.4730167388916016,-99.94430541992188,-12.564176559448242,1.5135458707809448,132,1.0,0.0,0.0,23.0,68.2,163.0,83.0,1.0
2.735900640487671,0.8130317330360413,10.397013664245604,4.158805847167969,-23.425012588500977,-5.9122161865234375,10.023932456970217,-0.5994738936424255,-1.3984194993972778,-27.87932586669922,-39.58153533935547,-92.65591430664062,9.12973403930664,-1.501296877861023,-1.0004552602767944,-21.827442169189453,-9.640567779541016,-46.1975212097168,10.321203231811523,-0.9550105929374696,-2.4671895503997803,-90.55763244628906,-8.47883415222168,-1.2267001867294312,132,1.0,0.0,0.0,23.0,68.2,163.0,83.0,1.0
2.8481006622314453,0.7390286922454834,10.461676597595217,0.90297931432724,-24.26780128479004,-4.899968147277832,10.234610557556152,-0.8455361127853394,-1.7876707315444946,-27.95916557312012,-40.47344207763672,-98.59426879882812,9.128426551818848,-1.7431645393371582,-1.0996596813201904,-35.75435256958008,-9.163094520568848,-41.69841003417969,11.018399238586426,-0.8578858375549316,-2.498732566833496,-76.99805450439453,-4.261104106903076,-5.908774375915527,132,1.0,0.0,0.0,23.0,68.2,163.0,83.0,1.0
2.638322114944458,0.6615061163902283,10.377074241638184,-1.351881504058838,-24.373762130737305,-4.767720699310303,10.552448272705078,-0.9543092846870422,-2.292992353439331,-26.16335868835449,-40.73546600341797,-103.57622528076172,9.208584785461426,-2.283994436264038,-1.9413483142852783,-45.49856185913086,-9.77712345123291,-36.64863586425781,11.56364631652832,-0.8361233472824097,-2.3359477519989014,-60.55765914916992,-1.271955966949463,-10.928144454956056,132,1.0,0.0,0.0,23.0,68.2,163.0,83.0,1.0
2.6373419761657715,0.82994544506073,10.49026584625244,-5.421295166015625,-27.25826835632324,-4.612730503082275,10.945199012756348,-0.9025108218193054,-3.015547275543213,-22.071430206298828,-41.36287689208984,-108.62181854248048,9.237264633178713,-2.820124387741089,-2.8355712890625,-45.62066268920898,-9.387401580810549,-33.11811065673828,12.16714096069336,-0.9425944685935974,-2.40315318107605,-44.49346923828125,0.4481858611106872,-14.474143981933594,132,1.0,0.0,0.0,23.0,68.2,163.0,83.0,1.0
2.6868550777435303,0.5865472555160522,10.47059726715088,-9.7139892578125,-28.926145553588867,-4.865620136260986,11.620296478271484,-0.5987261533737183,-3.5364251136779785,-21.74130821228028,-42.33440399169922,-113.85486602783205,9.63931941986084,-2.9673426151275635,-3.3154120445251465,-49.56565856933594,-9.424543380737305,-31.37288284301757,12.494975090026855,-1.2108820676803589,-2.365919828414917,-28.19663429260254,1.6311544179916382,-15.700849533081056,132,1.0,0.0,0.0,23.0,68.2,163.0,83.0,1.0
2.4309935569763184,0.5794451832771301,10.595467567443848,-11.875679969787598,-31.368412017822266,-5.981967449188232,12.39263153076172,0.1717486381530761,-3.2504961490631104,-22.3631534576416,-43.010162353515625,-118.37834167480467,10.528427124023438,-3.70807695388794,-4.321241855621338,-54.71760559082031,-10.191797256469728,-29.15561485290528,12.441201210021973,-1.3796225786209106,-2.274999618530273,-16.913034439086914,-1.458654284477234,-13.36292552947998,132,1.0,0.0,0.0,23.0,68.2,163.0,83.0,1.0
2.195330619812012,0.6856321692466736,10.798205375671388,-14.06375789642334,-35.69539260864258,-7.672331809997559,12.986084938049316,0.5701262950897217,-3.0033843517303467,-29.11858940124512,-43.40625762939453,-124.21226501464844,11.194110870361328,-4.737915992736816,-4.918459415435791,-48.46079635620117,-7.070329666137695,-28.350669860839844,11.88541030883789,-1.202256202697754,-2.310900449752808,-10.66633129119873,-6.6784772872924805,-8.78893756866455,132,1.0,0.0,0.0,23.0,68.2,163.0,83.0,1.0
1.926412463188172,0.8187679648399353,10.525638580322266,-17.566312789916992,-40.47419357299805,-9.921448707580566,13.60799503326416,0.3600527048110962,-2.0655133724212646,-39.79472351074219,-44.27366638183594,-130.00387573242188,11.653938293457031,-5.553330898284912,-4.290439128875732,-44.63553237915039,-3.539473056793213,-27.82351493835449,11.344754219055176,-0.3057006001472473,-2.264981508255005,-10.199462890625,-13.212005615234377,-3.19458270072937,132,1.0,0.0,0.0,23.0,68.2,163.0,83.0,1.0
1.5089082717895508,0.9619571566581726,10.324206352233888,-19.25496482849121,-43.64471054077149,-13.899274826049805,14.148324966430664,0.0289338305592536,-0.9624829292297364,-53.576454162597656,-44.25204086303711,-135.5409698486328,11.904399871826172,-6.715956211090088,-3.355322360992432,-38.77399063110352,0.0910587832331657,-25.08958625793457,11.175943374633787,0.2969368100166321,-2.090972900390625,-17.497398376464844,-14.218467712402344,2.0121400356292725,132,1.0,0.0,0.0,23.0,68.2,163.0,83.0,1.0
0.4496607184410095,1.1018871068954468,10.294793128967283,-19.99640464782715,-45.30514907836914,-18.58554458618164,14.658568382263184,-0.368900716304779,0.4115451276302337,-70.1731948852539,-43.98744201660156,-142.4705352783203,11.68832778930664,-7.136031627655029,-1.7923871278762815,-28.07024574279785,2.224572896957397,-20.89835548400879,11.38117790222168,0.6223066449165344,-1.6073778867721558,-26.33063316345215,-11.208490371704102,5.815729141235352,132,1.0,0.0,0.0,23.0,68.2,163.0,83.0,1.0
0.1729950755834579,0.357898861169815,9.423564910888672,-9.824200630187988,-52.010379791259766,-19.71793365478516,15.427579879760742,-1.0261955261230469,1.784253478050232,-87.78508758544922,-42.77760696411133,-152.4298553466797,11.544283866882324,-6.756282329559326,-0.3555870950222015,-21.74141502380371,4.265976428985596,-15.138444900512695,12.122920989990234,0.6641278266906738,-0.4094178676605224,-28.734786987304688,-4.26080322265625,6.5436601638793945,132,1.0,0.0,0.0,23.0,68.2,163.0,83.0,1.0
2.532823324203491,-0.6553943157196045,9.438526153564451,24.670066833496094,-72.1493911743164,-0.6288198232650757,16.465335845947266,-1.7675001621246338,1.320873141288757,-98.6514663696289,-41.02822113037109,-164.4964141845703,11.641160011291504,-6.52025318145752,0.2418710142374038,-28.65170860290528,5.781469821929932,-6.983790397644043,13.125844955444336,-0.2371825873851776,1.5259616374969482,-17.20662498474121,6.925437927246094,4.94069242477417,132,1.0,0.0,0.0,23.0,68.2,163.0,83.0,1.0
0.294070154428482,-0.997654676437378,11.529199600219728,83.9475326538086,-94.46861267089844,4.374511241912842,17.716426849365234,-2.2367751598358154,1.2253139019012451,-96.92074584960938,-48.23487854003906,-176.1382598876953,11.898841857910156,-6.752471446990967,0.441672146320343,-36.31003189086914,10.202598571777344,5.047676086425781,13.596492767333984,-1.2717926502227783,3.677683830261232,-0.1218213364481926,13.557963371276855,-1.5285041332244873,132,1.0,0.0,0.0,23.0,68.2,163.0,83.0,1.0
-1.1752225160598757,-0.6671427488327026,13.116965293884276,138.34996032714844,-119.67578887939452,-1.7731077671051023,19.46748352050781,-4.058633804321289,2.0397534370422363,-105.06404876708984,-58.35969924926758,-190.6491241455078,12.428573608398438,-7.338967323303223,0.7494048476219177,-47.6609001159668,16.093515396118164,23.123233795166016,13.681736946105955,-2.399569272994995,4.636183261871338,16.02984619140625,12.12000846862793,-11.440296173095703,132,1.0,0.0,0.0,23.0,68.2,163.0,83.0,1.0
-1.454859495162964,-0.785804271697998,11.641040802001951,171.49949645996094,-148.2735137939453,2.7876718044281006,21.033071517944336,-6.445600986480713,2.528715133666992,-119.7468490600586,-64.22315979003906,-201.8480529785156,12.747868537902832,-7.945889472961426,0.726274847984314,-50.62068176269531,25.354082107543945,43.3096923828125,13.902289390563965,-3.639997720718384,4.423331260681152,24.017066955566406,9.847926139831545,-19.988676071166992,132,1.0,0.0,0.0,23.0,68.2,163.0,83.0,1.0
0.1370392739772796,1.1764556169509888,13.281039237976074,176.57110595703125,-170.68556213378906,16.996028900146484,21.327674865722656,-7.920473575592041,3.273675441741944,-128.8297119140625,-69.18031311035156,-205.77378845214844,13.356709480285645,-8.711551666259766,0.6233799457550049,-52.93167495727539,36.795013427734375,64.49089050292969,14.18313217163086,-5.1239399909973145,4.225224018096924,22.82260704040528,13.598550796508787,-27.64486312866211,132,1.0,0.0,0.0,23.0,68.2,163.0,83.0,1.0
-2.373382568359375,3.376905679702759,17.075695037841797,131.8090057373047,-230.8340301513672,35.29276657104492,21.030704498291016,-8.76646900177002,2.031687498092652,-135.35015869140625,-73.45460510253906,-205.3021545410156,13.22687530517578,-9.798651695251465,0.9062221050262452,-51.27863693237305,51.1692008972168,82.35694122314453,13.55064296722412,-5.543910026550293,4.33732795715332,16.367815017700195,15.591651916503906,-33.947364807128906,132,1.0,0.0,0.0,23.0,68.2,163.0,83.0,1.0
-5.922760486602783,4.480196475982666,25.30271339416504,68.89788055419922,-409.8563232421875,59.8300895690918,21.13682746887207,-9.183594703674316,-0.4440246224403381,-126.7760009765625,-81.67127990722656,-199.5829315185547,12.27554988861084,-10.04981517791748,1.420345902442932,-44.78158187866211,59.44229507446289,97.04108428955078,12.08168125152588,-4.331207752227783,3.809483528137207,13.117029190063477,10.281298637390137,-35.31116485595703,132,1.0,0.0,0.0,23.0,68.2,163.0,83.0,1.0
-3.6760430335998535,6.1271843910217285,34.466426849365234,35.452232360839844,-622.1787719726562,84.32388305664062,21.38345527648925,-9.157112121582031,-3.481442213058472,-98.57532501220705,-86.92750549316406,-190.3573455810547,11.528264999389648,-8.792850494384766,0.328299343585968,-22.109819412231445,60.81650924682617,115.37823486328124,10.477856636047363,-2.356141328811645,2.94314956665039,9.143202781677246,3.2358882427215576,-32.12617492675781,132,1.0,0.0,0.0,23.0,68.2,163.0,83.0,1.0
-2.1895911693573,5.489895820617676,38.33361053466797,0.0432856976985931,-776.1431884765625,85.5976333618164,21.026185989379883,-7.720513343811035,-4.621892929077148,-52.77340698242188,-83.5966796875,-183.786376953125,10.536102294921877,-8.01087474822998,-0.3093020617961883,7.17551326751709,57.193939208984375,140.44131469726562,9.3900785446167,-0.4089223444461822,2.232726573944092,6.926389694213867,0.8090647459030151,-29.45411872863769,132,1.0,0.0,0.0,23.0,68.2,163.0,83.0,1.0
-2.8379688262939453,3.895841121673584,38.18843078613281,-31.352521896362305,-883.2179565429688,88.28620910644531,19.611543655395508,-3.624398946762085,-3.8670365810394287,4.430266857147217,-72.2369613647461,-186.5140380859375,9.910378456115724,-7.118402004241943,-2.771322250366211,42.54375457763672,43.35454940795898,155.96287536621094,8.20888614654541,1.534834861755371,1.584442377090454,3.5814480781555176,0.3326650261878967,-24.881322860717773,132,1.0,0.0,0.0,23.0,68.2,163.0,83.0,1.0
-5.890859603881836,4.734194755554199,34.302921295166016,-183.1427001953125,-885.61767578125,78.53316497802734,17.05405616760254,0.7831756472587585,-4.9145050048828125,59.29143142700195,-57.08911895751953,-198.28982543945312,10.233975410461426,-4.96069860458374,-2.6583409309387207,76.86665344238281,28.336559295654297,170.3501739501953,7.442262172698975,2.471766233444214,0.947648286819458,-6.151004791259766,-1.592565655708313,-20.27874565124512,132,1.0,0.0,0.0,23.0,68.2,163.0,83.0,1.0
-0.5899335145950317,-2.40307092666626,15.982101440429688,-274.9664611816406,-934.714111328125,12.500523567199709,13.718035697937012,3.354318618774414,-6.464097023010254,100.61759948730467,-60.4931640625,-212.670639038086,11.260783195495604,-2.1401641368865967,-0.4166096448898315,78.96707916259766,13.091404914855955,182.2942352294922,8.150946617126465,2.3575096130371094,0.2869021892547607,-14.248076438903809,2.60795259475708,-16.223934173583984,132,1.0,0.0,0.0,23.0,68.2,163.0,83.0,1.0
4.903445243835449,-9.513463973999023,8.10632610321045,-29.36942481994629,-907.6741943359376,-42.01267623901367,12.114225387573242,4.067468643188477,-5.775405883789063,110.45095825195312,-72.84503173828125,-216.51612854003903,13.46084213256836,-0.7943958044052124,0.7614770531654358,63.59231948852539,-2.5975146293640137,188.3699645996093,9.915200233459473,2.1576316356658936,0.3510323762893677,-14.026053428649902,11.003559112548828,-13.123945236206056,132,1.0,0.0,0.0,23.0,68.2,163.0,83.0,1.0
16.635211944580078,-1.4769701957702637,55.34710311889648,-10.940845489501951,-459.52386474609375,-24.29352760314941,11.33939266204834,4.409776210784912,-5.3601555824279785,109.24689483642578,-73.0522689819336,-200.12619018554688,17.539710998535156,0.3959790468215942,-2.264909029006958,72.29637145996094,-11.316755294799805,186.0120849609375,11.849173545837402,1.960147261619568,0.6585555076599121,-13.887325286865234,16.585981369018555,-11.011589050292969,132,1.0,0.0,0.0,23.0,68.2,163.0,83.0,1.0
24.02163887023925,-9.989562034606934,45.55263519287109,56.43743896484375,-133.6996612548828,-30.09321975708008,10.465372085571287,5.637782573699951,-6.499094009399414,126.12769317626952,-56.63835906982422,-164.63330078125,21.098608016967773,1.182666540145874,-5.363645076751709,83.07667541503906,-3.405665874481201,174.47796630859375,13.326107025146484,1.461267590522766,0.7379539608955383,-17.521709442138672,17.399747848510742,-9.374995231628418,132,1.0,0.0,0.0,23.0,68.2,163.0,83.0,1.0
-6.7742018699646,-5.559387683868408,47.21002578735352,83.4290771484375,161.11656188964844,-44.96111297607422,10.359676361083984,6.94338846206665,-5.958395957946777,139.15792846679688,-50.315311431884766,-118.2750244140625,22.839439392089844,2.607627391815185,-5.622474670410156,38.22817611694336,8.96191120147705,146.01498413085938,14.447135925292969,0.7204203009605408,0.3333564698696136,-18.64059257507324,17.876352310180664,-6.730503559112549,132,1.0,0.0,0.0,23.0,68.2,163.0,83.0,1.0
-12.950404167175291,-5.6402082443237305,21.016149520874023,132.09202575683594,218.5551147460937,-38.7561149597168,10.202733039855955,9.63071060180664,-1.750114917755127,129.99423217773438,-46.58346939086914,-68.6145248413086,21.62508201599121,3.790226936340332,-3.923131704330444,-47.650020599365234,26.479944229125977,137.5068817138672,14.531952857971191,0.1650361120700836,0.3355333805084228,-18.46418571472168,18.9468994140625,-4.2157979011535645,132,1.0,0.0,0.0,23.0,68.2,163.0,83.0,1.0
-20.08850860595703,0.8605480790138245,16.700342178344727,103.90684509277344,164.77223205566406,-20.688304901123047,5.343042850494385,11.207608222961426,-4.794733047485352,127.10575103759766,-3.840252161026001,-51.47560119628906,18.284862518310547,3.8801677227020255,-2.1644179821014404,-123.503662109375,31.32211685180664,148.4457244873047,14.169378280639648,-0.4991802275180816,0.377136766910553,-16.831378936767578,18.97397422790528,-2.416858196258545,132,1.0,0.0,0.0,23.0,68.2,163.0,83.0,1.0
-12.42520236968994,-4.53628396987915,10.319602966308594,-13.931038856506348,152.89111328125,-1.4848496913909912,4.122366905212402,9.259310722351074,-6.092612266540527,78.82575225830078,9.886653900146484,-17.872718811035156,16.040945053100586,3.867369413375856,-1.6490273475646973,-155.76490783691406,18.872947692871094,156.37786865234375,13.29326629638672,-1.0458624362945557,0.4089285731315613,-12.633049011230469,19.986555099487305,-0.8872007131576538,132,1.0,0.0,0.0,23.0,68.2,163.0,83.0,1.0
-8.30164909362793,-4.855389595031738,13.103630065917969,41.95916366577149,177.3945770263672,3.27428674697876,4.045949935913086,7.131044387817383,-2.3979287147521973,5.754359722137451,13.446247100830078,33.3244514465332,15.8612642288208,4.240758895874023,-0.7781409621238708,-161.17074584960938,3.928558349609375,161.2546844482422,12.183035850524902,-1.581768274307251,0.3845247328281402,-9.08493423461914,14.10000991821289,2.1650307178497314,132,1.0,0.0,0.0,23.0,68.2,163.0,83.0,1.0
-6.220669269561768,-0.2369942665100097,16.922094345092773,48.2238655090332,231.93533325195312,-1.424157738685608,5.0298285484313965,6.607824802398682,0.0293738301843404,-41.09402847290039,31.606096267700195,78.33445739746094,16.112735748291016,3.4155564308166504,-0.8392974734306335,-150.89019775390625,-7.26120138168335,165.35757446289062,11.212994575500488,-1.7080835103988647,0.1165231764316558,-7.728764057159424,8.120648384094238,5.84951114654541,132,1.0,0.0,0.0,23.0,68.2,163.0,83.0,1.0
-3.987394809722901,2.740239143371582,18.17725944519043,22.428794860839844,280.4402770996094,-0.5863378047943115,4.884056091308594,6.223415374755859,-1.5966614484786987,-48.48471450805664,59.58232879638672,112.50093841552734,16.071393966674805,2.2358644008636475,-1.5579502582550049,-117.8364486694336,-15.004226684570312,165.58541870117188,10.006319999694824,-1.5725574493408203,-0.0163395889103412,-6.876218795776367,7.144464492797852,9.470441818237305,132,1.0,0.0,0.0,23.0,68.2,163.0,83.0,1.0
-2.7299489974975586,3.7235147953033447,15.476204872131348,-23.68211936950684,322.6846008300781,4.977612018585205,3.423793315887451,6.488166332244873,-3.745467185974121,-26.218305587768555,86.4898910522461,141.46499633789062,14.498095512390137,1.3199928998947144,-1.7511740922927856,-84.74066925048828,-16.961366653442383,167.10169982910156,8.894777297973633,-1.2215406894683838,0.0658738315105438,-6.40755558013916,7.392255783081055,13.568232536315918,132,1.0,0.0,0.0,23.0,68.2,163.0,83.0,1.0
-2.6902740001678467,1.3319462537765503,10.583978652954102,-68.99488830566406,349.1370544433594,10.229622840881348,1.420088291168213,6.491775035858154,-3.998237848281861,-22.272226333618164,109.5603256225586,172.57354736328125,13.561144828796388,0.6655382513999939,-2.082804679870605,-49.85794448852539,-20.542564392089844,165.8209228515625,8.00179672241211,-0.9325754046440125,0.0248577930033206,-3.6102757453918457,6.370351314544678,16.952566146850586,132,1.0,0.0,0.0,23.0,68.2,163.0,83.0,1.0
-2.1749134063720703,0.4706116616725921,7.9213948249816895,-75.83596801757812,359.1816711425781,17.39885139465332,0.2594900727272033,6.033122539520264,-2.868997812271118,-23.533620834350582,118.9830322265625,208.9786529541016,12.533486366271973,0.7561041712760925,-1.754822850227356,-10.865560531616213,-17.519929885864258,159.2729034423828,7.409412860870361,-0.5412512421607971,0.0590136051177978,-1.6953814029693604,7.2587571144104,19.124351501464844,132,1.0,0.0,0.0,23.0,68.2,163.0,83.0,1.0
-0.511297345161438,0.5820977091789246,8.733179092407227,-87.71678161621094,357.6120300292969,23.67692375183105,0.8278775811195374,6.469066143035889,-0.8264228701591492,-29.86082649230957,110.14993286132812,241.720947265625,11.915456771850586,1.2805490493774414,-1.0242291688919067,21.01191520690918,-13.32427215576172,150.00880432128906,7.040507316589356,-0.2664934396743774,0.0167547091841697,-0.772166907787323,9.524285316467283,20.81033134460449,132,1.0,0.0,0.0,23.0,68.2,163.0,83.0,1.0
2.273569107055664,0.5526743531227112,11.096616744995115,-87.9166488647461,358.38671875,29.131511688232425,2.9197678565979004,6.114626884460449,-0.5243324637413025,-27.20776557922364,98.8695068359375,262.5990295410156,10.96368408203125,1.532268524169922,-0.462646484375,45.63162612915039,-8.59843921661377,139.69786071777344,6.84783935546875,-0.1175248026847839,-0.0935166403651237,0.8597038388252258,12.171187400817873,21.36700820922852,132,1.0,0.0,0.0,23.0,68.2,163.0,83.0,1.0
4.407684326171875,1.1593480110168457,13.188640594482422,-81.6961441040039,366.864501953125,34.52732849121094,3.92730450630188,5.340760707855225,-1.033722996711731,-7.378663539886475,108.80309295654295,276.1405944824219,10.324054718017578,1.8454902172088623,-0.449624240398407,66.28950500488281,-8.970087051391602,131.9918975830078,6.862534999847412,-0.27457195520401,-0.1835605204105377,3.125232696533203,15.87165069580078,20.5516300201416,132,1.0,0.0,0.0,23.0,68.2,163.0,83.0,1.0
5.879342555999756,1.8259902000427248,14.894716262817385,-76.84069061279297,380.79736328125,37.44010162353516,3.27810001373291,4.703272342681885,-1.235386848449707,13.773401260375977,122.697509765625,287.7659606933594,9.416630744934082,1.7713159322738647,-0.7939936518669128,79.08042907714844,-9.430567741394045,127.79808807373048,6.931979656219482,-0.4450268447399139,-0.1950753480195999,6.579366683959961,17.16619873046875,20.09713554382324,132,1.0,0.0,0.0,23.0,68.2,163.0,83.0,1.0
6.804810523986816,2.8309147357940674,16.403661727905273,-70.87004089355469,399.5975036621094,34.86296844482422,2.722665309906006,4.480912208557129,-1.194714903831482,37.21421813964844,124.447021484375,300.8883056640625,8.378579139709473,1.3084840774536133,-1.3902713060379028,104.0389633178711,-13.073118209838867,119.17904663085938,7.126189231872559,-0.6092227697372437,-0.2306167632341385,6.835969924926758,18.99185371398925,18.27470588684082,132,1.0,0.0,0.0,23.0,68.2,163.0,83.0,1.0
7.588268756866455,3.55139684677124,16.944364547729492,-69.99170684814453,418.7268371582031,27.39718246459961,3.628560543060303,4.997032165527344,-1.6665953397750854,64.78361511230469,118.3209228515625,317.0763244628906,8.014958381652832,1.91053569316864,-0.924133002758026,122.80860900878906,-10.724528312683104,115.66205596923828,7.30496883392334,-0.9253845810890198,-0.3436849415302276,8.629045486450195,20.261859893798828,17.613550186157227,132,1.0,0.0,0.0,23.0,68.2,163.0,83.0,1.0
7.858058452606201,4.583858966827393,17.1141357421875,-70.07772827148438,430.906982421875,17.206209182739258,5.597987174987793,5.688965320587158,-2.3383097648620605,78.19989776611328,117.11096954345705,327.5395812988281,7.505264759063721,2.0973215103149414,-1.0652285814285278,123.10121154785156,-10.577640533447266,110.70695495605467,7.459681510925293,-0.878214418888092,-0.3123708367347717,11.73249340057373,20.746994018554688,16.841075897216797,132,1.0,0.0,0.0,23.0,68.2,163.0,83.0,1.0
8.272964477539062,5.070269107818604,16.58527374267578,-77.54443359375,433.583251953125,4.813685894012451,7.612820625305176,6.37512731552124,-2.6196208000183105,76.7330322265625,125.0463409423828,327.1452331542969,7.121388912200928,2.626457452774048,-1.0813050270080566,110.99537658691406,-8.286731719970703,111.68014526367188,7.493463039398193,-0.984012484550476,-0.169473722577095,13.515551567077637,20.682676315307617,16.194854736328125,132,1.0,0.0,0.0,23.0,68.2,163.0,83.0,1.0
8.716548919677734,5.013524055480957,16.048473358154297,-81.61517333984375,427.8265380859375,-8.960987091064453,8.431388854980469,6.720040798187256,-2.412348747253418,59.30679321289063,137.56982421875,324.95147705078125,6.155219078063965,2.906146049499512,-1.3323007822036743,95.23465728759766,-10.675737380981444,110.06983184814452,7.483418941497803,-0.9451857805252076,0.0293004252016544,14.594502449035645,20.69461441040039,15.235807418823242,132,1.0,0.0,0.0,23.0,68.2,163.0,83.0,1.0
9.727709770202637,4.184606552124023,15.830876350402832,-82.12814331054688,414.0989685058594,-21.657697677612305,7.653641223907471,6.148306369781494,-3.00976037979126,51.67193984985352,146.6973876953125,327.2558288574219,5.758021354675293,3.476362705230713,-0.73219233751297,72.21170043945312,-14.304920196533203,103.44435119628906,7.488519668579102,-0.926475703716278,0.1725204139947891,12.916511535644531,18.023712158203125,14.541223526000977,132,1.0,0.0,0.0,23.0,68.2,163.0,83.0,1.0
10.869572639465332,3.360404253005981,15.772830963134766,-70.32513427734375,399.2579650878906,-31.734294891357425,6.853750705718994,5.80111026763916,-2.8713674545288086,52.7258415222168,144.62954711914062,333.1244201660156,5.703999996185303,3.2405335903167725,-0.612265408039093,49.729679107666016,-13.944838523864746,88.355712890625,7.433600425720215,-0.8837047815322876,0.1895135641098022,11.285625457763672,15.102303504943848,13.097244262695312,132,1.0,0.0,0.0,23.0,68.2,163.0,83.0,1.0
12.253528594970703,2.372100353240967,15.289984703063965,-53.88075637817383,382.9292907714844,-42.005836486816406,7.36958122253418,5.830056667327881,-2.398900985717773,48.9344482421875,142.14602661132812,339.8996276855469,5.815432548522949,3.25480055809021,-0.2162190228700637,43.170997619628906,-11.54934024810791,72.84394073486328,7.44782829284668,-0.9646849632263184,0.1509545892477035,10.155241012573242,13.133537292480469,10.830560684204102,132,1.0,0.0,0.0,23.0,68.2,163.0,83.0,1.0
13.211166381835938,2.320829153060913,14.390751838684082,-34.172340393066406,365.958251953125,-49.70475387573242,8.297464370727539,5.177581310272217,-2.087103366851806,50.83852005004883,147.02212524414062,343.87481689453125,5.735701560974121,3.2299630641937256,0.9187832474708556,35.66524887084961,-5.03443717956543,62.84589767456055,7.620891571044922,-0.9748498797416688,-0.039760485291481,12.631702423095703,10.839370727539062,9.028881072998049,132,1.0,0.0,0.0,23.0,68.2,163.0,83.0,1.0
13.520002365112305,2.074786424636841,12.792083740234377,-30.45941734313965,340.41241455078125,-51.98340225219727,9.614128112792969,5.136615753173828,-2.098527193069458,38.44761657714844,148.2017059326172,342.86083984375,5.46317720413208,2.5913095474243164,1.2677804231643677,14.68117904663086,2.15173077583313,58.92791366577149,7.964776992797852,-0.927679181098938,-0.1584721654653549,15.710200309753418,9.843207359313965,7.154941558837891,132,1.0,0.0,0.0,23.0,68.2,163.0,83.0,1.0
13.762104988098145,0.9008236527442932,12.558899879455566,-34.55916213989258,305.90411376953125,-50.09623336791992,10.157862663269045,6.577256202697754,-2.206113576889038,24.96477508544922,155.4788360595703,340.1794738769531,4.624278545379639,2.1653568744659424,1.1464002132415771,1.8903871774673464,8.200242042541504,57.46004486083984,8.086884498596191,-1.0954523086547852,-0.044325090944767,17.265090942382812,9.039433479309082,5.346013069152832,132,1.0,0.0,0.0,23.0,68.2,163.0,83.0,1.0
15.854403495788574,0.4646771252155304,14.060220718383787,-35.246971130371094,271.6383056640625,-41.805477142333984,10.17294979095459,7.762777805328369,-1.8179328441619875,7.705641269683838,150.3550567626953,332.7642822265625,3.932738542556762,2.112377643585205,1.264644980430603,-5.039525508880615,3.986482620239258,57.63026809692383,8.086623191833496,-0.7855886816978455,-0.3187808096408844,16.965044021606445,7.337647438049316,3.5585994720458984,132,1.0,0.0,0.0,23.0,68.2,163.0,83.0,1.0
18.29303741455078,0.2663551867008209,14.218825340270996,-39.69475936889648,251.12942504882807,-28.58576393127441,10.640118598937988,7.406084537506103,-2.6773924827575684,-3.692861318588257,146.11483764648438,320.0756530761719,3.660386562347412,1.328474998474121,1.070468783378601,-12.37082862854004,-5.570203304290772,57.11007690429688,7.963839054107666,-0.808874249458313,-0.5439096689224243,17.249874114990234,4.810725688934326,1.959323048591613,132,1.0,0.0,0.0,23.0,68.2,163.0,83.0,1.0
19.817182540893555,0.1517658531665802,13.26626205444336,-44.04148483276367,234.7231903076172,-15.058432579040527,9.770069122314451,6.276041030883789,-3.089182615280152,-16.3408260345459,138.7187042236328,305.3176574707031,3.93145489692688,-0.4373985528945923,0.3516945242881775,-13.636919975280762,-14.175025939941406,56.261940002441406,7.951920509338379,-0.68961101770401,-0.6066250205039978,18.24693298339844,2.398017883300781,0.2996481955051422,132,1.0,0.0,0.0,23.0,68.2,163.0,83.0,1.0
21.29003524780273,0.132935419678688,10.924962997436523,-46.85018157958984,218.6288604736328,-0.7371461391448975,9.178126335144045,5.027087688446045,-2.459287405014038,-20.00005149841309,121.08431243896484,287.7315673828125,4.319216251373291,-2.2752599716186523,-0.9380797147750854,-6.643543720245361,-16.996538162231445,53.3839225769043,7.959853172302246,-0.6285760998725891,-0.5857847929000854,19.287256240844727,0.5455705523490906,-1.6080108880996704,132,1.0,0.0,0.0,23.0,68.2,163.0,83.0,1.0
21.402320861816406,-0.2044841647148132,7.3267502784729,-48.04298400878906,197.9214782714844,14.056941032409668,9.37480926513672,4.162255764007568,-2.090500831604004,-7.466402530670166,111.07376861572266,268.9803466796875,5.282047271728516,-4.2418365478515625,-2.3157570362091064,9.742863655090332,-20.80943489074707,51.65422821044922,7.958967208862305,-0.3149333894252777,-0.688902735710144,20.88692092895508,-3.35193133354187,-3.1788814067840576,132,1.0,0.0,0.0,23.0,68.2,163.0,83.0,1.0
21.95090675354004,-0.1178586930036544,5.28532075881958,-50.90513610839844,167.96815490722656,29.22115898132324,9.329252243041992,4.197359085083008,-2.525367259979248,14.7952880859375,108.19007110595705,249.6039123535156,6.430390357971191,-6.156776428222656,-2.5475568771362305,45.90522003173828,-22.82145118713379,50.70588302612305,7.986431121826172,-0.2354892939329147,-1.4432908296585083,24.81822395324707,-8.638278007507324,-4.94928789138794,132,1.0,0.0,0.0,23.0,68.2,163.0,83.0,1.0
24.011585235595703,0.562831461429596,7.196750164031982,-53.99351501464844,141.05429077148438,41.07545852661133,9.196324348449709,4.636606693267822,-3.775612592697144,27.015567779541016,103.58260345458984,226.2169952392578,7.3744916915893555,-7.041347503662109,-1.9310531616210933,67.80348205566406,-24.67850112915039,52.51205825805664,8.563950538635254,0.1841159909963607,-2.470672130584717,35.380149841308594,-11.03395938873291,-6.017098426818848,132,1.0,0.0,0.0,23.0,68.2,163.0,83.0,1.0
25.53203773498535,0.6013473868370056,7.584671974182129,-38.05191421508789,134.76483154296875,46.96718215942383,9.079547882080078,4.829342842102051,-3.784424781799317,26.090017318725582,90.29055786132812,205.5977325439453,8.695918083190918,-6.661131381988525,-1.718625783920288,58.827484130859375,-24.65726661682129,52.010292053222656,9.226499557495115,0.2519450187683105,-2.530242681503296,42.05230331420898,-4.992836952209473,-4.622480392456055,132,1.0,0.0,0.0,23.0,68.2,163.0,83.0,1.0
24.144519805908203,0.9913744926452636,3.7104415893554688,-5.863365650177002,132.27182006835938,44.91033172607422,8.653746604919434,5.938060283660889,-2.772811889648437,18.07779312133789,74.10323333740234,182.8684997558593,8.535768508911133,-6.091395378112793,-1.203218698501587,17.056718826293945,-7.002579212188721,51.564849853515625,9.696552276611328,0.0775785744190216,-2.043121337890625,41.36642456054688,-2.650949001312256,-3.6924002170562735,132,1.0,0.0,0.0,23.0,68.2,163.0,83.0,1.0
21.868406295776367,2.454962730407715,-0.5264336466789246,29.839881896972656,113.15438842773438,38.48902893066406,9.027936935424805,6.556457996368408,-2.964974880218506,12.901556015014648,58.81240463256836,153.0897979736328,8.037454605102539,-5.842902183532715,-0.5184763669967651,-29.4424057006836,7.719819068908691,49.66609191894531,10.339903831481934,-0.1860976219177246,-1.7477434873580933,40.03060531616211,-3.785763502120972,-2.975097417831421,132,1.0,0.0,0.0,23.0,68.2,163.0,83.0,1.0
21.13425064086914,5.633718490600586,-0.7257198095321655,37.9500846862793,75.50137329101562,27.389976501464844,8.9334716796875,6.200130939483643,-3.546281099319458,5.5702080726623535,49.11450958251953,122.45122528076172,7.3213210105896,-6.886781692504883,-0.2643261849880218,-54.51420974731445,15.412282943725586,42.94967651367188,11.10808277130127,-0.5300218462944031,-1.955771803855896,43.21296310424805,-6.088667392730713,-1.8130041360855105,132,1.0,0.0,0.0,23.0,68.2,163.0,83.0,1.0
21.81292152404785,7.39739465713501,0.3148433566093445,12.442343711853027,46.2505111694336,7.689357280731201,8.033454895019531,5.421928882598877,-3.4924097061157227,-1.611239671707153,37.81064224243164,95.13590240478516,6.943996429443359,-7.8576860427856445,-0.0561131685972213,-63.71904754638672,14.244680404663086,31.923324584960938,11.86754322052002,-0.7735080122947693,-2.316768884658813,51.77303695678711,-8.501052856445312,-0.9765962362289428,132,1.0,0.0,0.0,23.0,68.2,163.0,83.0,1.0
21.282209396362305,6.3521037101745605,-0.950983226299286,-7.6480584144592285,26.511329650878903,-9.587209701538086,7.422460556030273,5.914589405059815,-2.585296392440796,-9.373180389404297,22.897964477539062,72.55900573730469,7.053215026855469,-9.070929527282717,-0.2657567262649536,-69.40357971191406,7.708766937255859,17.366735458374023,12.104368209838867,-0.8562650084495544,-2.349120855331421,55.86262130737305,-8.759607315063477,-0.5355696082115173,132,1.0,0.0,0.0,23.0,68.2,163.0,83.0,1.0
20.37354278564453,5.479942798614502,-1.951023936271668,-17.03550148010254,2.115519523620605,-20.45395278930664,7.640849590301514,7.37060546875,-2.528084754943848,-15.167159080505373,12.43625259399414,49.06064987182617,7.487861156463623,-9.085739135742188,-0.3961777091026306,-76.47554016113281,1.7755109071731567,4.400368690490723,12.325799942016602,-0.9256281852722168,-2.564164400100708,55.69794464111328,-9.735102653503418,-1.092501521110535,132,1.0,0.0,0.0,23.0,68.2,163.0,83.0,1.0
20.419567108154297,4.251040935516357,-0.9369098544120787,-32.520565032958984,-24.497020721435547,-28.09959602355957,7.505717277526855,8.151459693908691,-3.4237070083618164,-28.24442481994629,4.0284833908081055,22.64298248291016,7.442747116088867,-8.834226608276367,-0.8547142744064331,-80.27372741699219,-2.9434640407562256,-6.514647483825684,12.564204216003418,-0.9010177850723268,-2.849282741546631,55.0689811706543,-11.421239852905272,-1.1043864488601685,132,1.0,0.0,0.0,23.0,68.2,163.0,83.0,1.0
20.24024200439453,2.3809258937835693,0.0052959322929382,-26.792236328125,-45.41059875488281,-34.92462921142578,6.969474315643311,7.930632591247559,-3.6691293716430655,-43.90314483642578,-9.616689682006836,-4.479130744934082,7.6628098487854,-7.824687957763672,-1.8024317026138303,-72.51273345947266,-8.264897346496582,-12.374670028686523,12.89338207244873,-0.8216152787208557,-3.2436294555664062,57.4477653503418,-12.047460556030272,-0.2266098111867904,132,1.0,0.0,0.0,23.0,68.2,163.0,83.0,1.0
19.38886070251465,1.3309122323989868,0.2117349505424499,-7.35830020904541,-60.46084213256836,-40.38777923583984,6.790050983428955,7.093495845794678,-3.66636323928833,-51.809513092041016,-22.306501388549805,-27.9977970123291,7.983383655548096,-6.522183895111084,-3.1585886478424072,-47.56536865234375,-5.976109027862549,-15.902389526367188,13.206684112548828,-0.9227022528648376,-3.147478103637696,59.16633605957031,-11.328161239624023,2.179662704467773,132,1.0,0.0,0.0,23.0,68.2,163.0,83.0,1.0
17.304115295410156,0.9830309748649596,0.4404085278511047,5.619724273681641,-76.4756851196289,-41.72885513305664,7.281015396118164,6.21021032333374,-3.965268611907959,-48.52298355102539,-30.921947479248047,-48.093406677246094,8.018815994262695,-4.663491725921631,-3.7278201580047607,-16.019521713256836,4.00745153427124,-18.57654190063477,12.86400032043457,-1.2249540090560913,-2.5145509243011475,56.498783111572266,-13.796969413757324,3.894002676010132,132,1.0,0.0,0.0,23.0,68.2,163.0,83.0,1.0
15.463655471801758,0.7031965851783752,1.9173576831817627,6.996542453765869,-94.94557189941406,-39.53361892700195,7.750017166137695,6.074863433837891,-4.794947624206543,-38.31528854370117,-33.09807586669922,-64.50092315673828,8.166427612304688,-3.138005256652832,-3.768660068511963,4.85935640335083,11.776459693908691,-23.63569068908692,12.922986030578612,-1.3564589023590088,-2.2133350372314453,52.63060760498047,-18.8477725982666,5.073258399963379,132,1.0,0.0,0.0,23.0,68.2,163.0,83.0,1.0
14.888033866882324,0.0133554134517908,4.131241321563721,1.167304754257202,-106.25244903564452,-33.88632583618164,7.532058238983154,6.809576034545898,-5.111525535583496,-28.08621597290039,-35.36091232299805,-76.03475189208984,8.294682502746582,-1.9294898509979248,-3.8808090686798096,14.821184158325195,9.93188190460205,-35.13759231567383,12.73600959777832,-1.354905366897583,-2.2299861907958984,50.136016845703125,-23.026466369628903,5.995578765869141,132,1.0,0.0,0.0,23.0,68.2,163.0,83.0,1.0
3.717286348342896,-6.072700023651123,0.6228524446487427,-13.838911056518556,-115.13988494873048,-46.77970504760742,7.061688423156738,7.9535088539123535,-5.179825782775879,-23.716188430786133,-35.96657180786133,-83.81078338623047,8.700946807861328,-0.8753896355628967,-3.996192693710327,27.702226638793945,3.318537712097168,-47.41556930541992,12.417594909667969,-1.3247370719909668,-2.648627281188965,51.09056091308594,-24.78775787353516,6.231410026550293,132,1.0,0.0,0.0,23.0,68.2,163.0,83.0,1.0
0.0929451733827591,-5.250874996185303,10.701770782470703,52.34866714477539,-248.6687164306641,-47.61873245239258,6.588794231414795,8.27427864074707,-5.485668182373047,-14.10166358947754,-36.01585006713867,-89.63665008544922,8.664999008178711,0.8259283900260925,-2.86658787727356,45.36441421508789,-1.0018670558929443,-58.49826049804688,11.884099960327148,-0.9308522939682008,-2.806304693222046,50.52019500732422,-25.484134674072266,7.502596855163574,132,1.0,0.0,0.0,23.0,68.2,163.0,83.0,1.0
18.02020835876465,-2.2647058963775635,20.792409896850582,13.761850357055664,-167.6051025390625,15.336013793945312,6.713446140289307,6.684079647064209,-7.991554260253906,-9.278238296508787,-36.5890007019043,-93.92276000976562,7.920701503753662,2.4776721000671387,-1.420014500617981,39.29139709472656,-3.732052564620972,-68.65093231201172,11.8318510055542,-0.7761990427970886,-1.8402341604232788,48.435794830322266,-26.354841232299805,10.29634952545166,132,1.0,0.0,0.0,23.0,68.2,163.0,83.0,1.0
10.576664924621582,0.354485273361206,85.08549499511719,-123.13861083984376,-169.74911499023438,31.697715759277344,7.908416748046875,2.659183979034424,-6.206173419952393,-15.910700798034668,-52.78710174560547,-87.9952163696289,7.479198455810547,3.437893867492676,-1.168903112411499,21.959014892578125,-4.014685153961182,-81.43340301513672,13.054649353027344,0.1566210687160492,0.597731351852417,40.41653060913086,-8.787822723388672,16.81991195678711,132,1.0,0.0,0.0,23.0,68.2,163.0,83.0,1.0
32.15171813964844,-30.504507064819336,-13.412236213684082,126.70848083496094,162.05809020996094,-35.78544998168945,11.94306468963623,0.0252977944910526,-5.915743350982666,-21.451488494873047,-59.95723342895508,-79.00719451904297,7.764562606811523,3.068018913269043,-1.2251591682434082,-0.1884839832782745,-5.698230266571045,-98.63829040527344,14.290451049804688,1.9108762741088867,4.5027594566345215,5.5262885093688965,8.631274223327637,28.960054397583008,132,1.0,0.0,0.0,23.0,68.2,163.0,83.0,1.0
-46.550926208496094,-11.310264587402344,0.0402228832244873,403.1076049804688,-16.678516387939453,-32.46259689331055,20.516096115112305,-11.140000343322754,-11.302268981933594,-63.24908828735352,-126.00420379638672,-89.63826751708984,9.795083045959473,0.368941068649292,-1.3823137283325195,-28.133563995361328,-8.254364013671875,-121.52238464355467,16.60790252685547,4.067347049713135,8.830855369567871,-46.642120361328125,16.286630630493164,45.24858474731445,132,1.0,0.0,0.0,23.0,68.2,163.0,83.0,1.0
28.882164001464844,32.404422760009766,48.01827239990234,120.39315032958984,-246.0809326171875,103.1743621826172,40.242523193359375,-20.447553634643555,-1.3046202659606934,-73.97826385498047,-183.8196258544922,-42.48544692993164,16.590057373046875,-4.783698558807373,0.548302412033081,-57.23054885864258,-11.704168319702148,-150.658935546875,18.07106208801269,7.372042179107666,9.911270141601562,-70.69779205322266,13.947296142578123,56.52451705932617,132,1.0,0.0,0.0,23.0,68.2,163.0,83.0,1.0
2.004709005355835,14.848325729370115,9.60767650604248,109.47267150878906,58.95378112792969,-83.69419860839844,38.765506744384766,-6.490481376647949,10.75080394744873,77.88787841796875,-5.517640113830566,-44.09394836425781,29.5505313873291,-14.933107376098633,1.1632142066955566,-107.8488311767578,-28.266090393066406,-157.1696014404297,16.27684783935547,8.868499755859375,6.322709083557129,-66.4342041015625,-16.800445556640625,56.60214614868164,132,1.0,0.0,0.0,23.0,68.2,163.0,83.0,1.0
-9.221854209899902,5.36775016784668,6.069972515106201,-48.13298416137695,-91.76841735839844,15.618968963623049,16.65237045288086,11.91831111907959,8.840200424194336,-5.448240280151367,62.29304122924805,-46.91216278076172,25.7700424194336,-29.18440628051757,-9.393648147583008,-115.2584991455078,-50.70280456542969,-140.1937255859375,12.49997901916504,5.791873931884766,3.1858012676239014,-47.70818328857422,-35.70692443847656,41.35542678833008,132,1.0,0.0,0.0,23.0,68.2,163.0,83.0,1.0
7.18374490737915,-2.013517141342163,16.925872802734375,-229.1221466064453,-67.8284912109375,22.32253074645996,5.373210430145264,10.295230865478516,4.493077278137207,-77.48389434814453,-33.98957443237305,-137.00230407714844,17.66658592224121,-29.82538795471192,-18.413917541503903,42.34264755249024,-95.03626251220705,-122.39152526855467,9.415915489196776,1.1902638673782349,1.9215277433395384,-25.90779685974121,-30.503562927246094,24.38265991210937,132,1.0,0.0,0.0,23.0,68.2,163.0,83.0,1.0
-1.0384535789489746,-6.515790939331055,3.969239473342896,87.80443572998047,-35.13336563110352,14.585476875305176,8.789692878723145,0.1690172702074051,6.150216579437256,-55.365997314453125,-65.17450714111328,-150.3331756591797,18.32097625732422,-9.301878929138184,-8.645429611206055,208.3959808349609,-34.18232345581055,-76.44023895263672,7.775341033935547,-1.7382882833480835,1.9604746103286743,2.806156635284424,-21.33446884155273,11.49622631072998,132,1.0,0.0,0.0,23.0,68.2,163.0,83.0,1.0
-0.9949240684509276,9.246034622192385,11.905381202697754,114.96652221679688,-38.563438415527344,30.774110794067383,7.286041259765625,-10.133170127868652,6.839190483093262,9.241517066955566,-30.634666442871094,-122.80857849121094,12.980864524841309,5.120440006256104,2.973923921585083,302.067626953125,55.29465866088867,-27.980274200439453,7.244700908660889,-3.9140915870666495,1.5953432321548462,19.35347366333008,-18.298486709594727,3.3988699913024902,132,1.0,0.0,0.0,23.0,68.2,163.0,83.0,1.0
0.616422712802887,7.957309722900391,11.566473007202148,-118.0557632446289,-64.58992767333984,31.46492576599121,3.6187689304351807,-12.16336727142334,-4.063981533050537,127.8564682006836,11.397491455078123,-80.89126586914062,6.366770267486572,18.96283721923828,9.583518028259276,292.0653381347656,54.99782943725586,-14.066680908203123,7.2970380783081055,-5.264903545379639,0.9662808179855348,20.49210357666016,-6.032769680023193,2.23885178565979,132,1.0,0.0,0.0,23.0,68.2,163.0,83.0,1.0
1.750022292137146,-3.569852590560913,9.866804122924805,-151.19448852539062,-60.57085418701172,24.788867950439453,2.6255788803100586,-2.778338670730591,-4.284684658050537,177.80331420898438,-19.12630271911621,-59.79752731323242,4.639258861541748,27.79477500915528,12.145402908325195,127.0790023803711,19.92214775085449,-4.632568836212158,7.193848133087158,-5.8099684715271,1.5565249919891355,17.142601013183594,-0.0724883079528808,4.7258148193359375,132,1.0,0.0,0.0,23.0,68.2,163.0,83.0,1.0
3.367562055587769,-7.635858058929443,9.984697341918944,-52.249271392822266,-39.33866882324219,19.413698196411133,12.646661758422852,4.724062442779541,-5.433314323425293,166.7733154296875,-37.75287628173828,-59.99711990356445,4.881654262542725,20.19536399841309,6.537886142730713,-97.13135528564452,10.386666297912598,-29.95846366882324,7.622835636138916,-5.197513580322266,1.5468456745147705,9.311966896057127,1.0801396369934082,8.619742393493652,132,1.0,0.0,0.0,23.0,68.2,163.0,83.0,1.0
2.393001079559326,-2.3901991844177246,10.800525665283203,18.84927558898925,-20.60434913635254,11.709890365600586,14.993488311767578,15.989113807678224,-6.71210241317749,134.220458984375,-0.4700159430503845,-14.306559562683104,4.636847019195557,12.639528274536133,0.0976868793368339,-219.79981994628903,1.9639089107513428,-66.41735076904297,8.356513023376465,-4.2769083976745605,1.4214917421340942,-1.2140638828277588,3.900139570236206,14.358102798461914,132,1.0,0.0,0.0,23.0,68.2,163.0,83.0,1.0
2.4913341999053955,0.8200162053108215,12.011752128601074,-12.174899101257324,-15.985071182250977,5.827958583831787,3.103196859359741,22.61551094055176,-3.4572629928588867,8.502697944641113,-5.74836015701294,-14.209999084472656,4.9711079597473145,5.581467151641846,-3.3785951137542725,-301.6437683105469,-1.2731521129608154,-93.0792236328125,9.740848541259766,-3.0774922370910645,1.4242913722991943,-9.467869758605955,8.857060432434082,16.144311904907227,132,1.0,0.0,0.0,23.0,68.2,163.0,83.0,1.0
2.999605894088745,-0.9126322865486144,11.761165618896484,-23.196685791015625,-4.491983413696289,2.8599331378936768,2.347197771072388,15.837286949157717,-6.14966344833374,-127.66566467285156,-47.16519165039063,-65.54338836669922,4.52260160446167,-4.542956352233887,-8.094956398010254,-292.407470703125,-19.57209587097168,-100.9281005859375,10.434945106506348,-1.5768680572509766,1.5255131721496582,-17.392282485961914,14.37793254852295,14.598137855529783,132,1.0,0.0,0.0,23.0,68.2,163.0,83.0,1.0
2.4443178176879883,-0.6841554045677185,11.781455039978027,-4.2474684715271,10.20525074005127,1.496101975440979,8.832098960876465,7.043975353240967,-5.386667728424072,-162.2742919921875,-66.32711029052734,-67.08739471435547,7.099664211273193,-9.486122131347656,-8.076387405395508,-169.06619262695312,-11.563161849975586,-123.48680114746094,10.868226051330566,-0.3745173513889313,1.8263075351715088,-25.168901443481445,18.79224395751953,9.790242195129396,132,1.0,0.0,0.0,23.0,68.2,163.0,83.0,1.0
2.183135271072388,-0.7854915857315063,12.349870681762695,-14.82932949066162,17.40913200378418,-0.2768515944480896,12.435282707214355,0.959809958934784,-4.094980239868164,-178.80108642578125,-55.09329605102539,-58.10599136352539,11.853923797607422,-4.77156400680542,-3.948028326034546,-92.64995574951172,-12.314910888671877,-125.76374053955078,10.54080867767334,0.574146032333374,1.9997026920318604,-29.012222290039062,18.800033569335938,3.869021415710449,132,1.0,0.0,0.0,23.0,68.2,163.0,83.0,1.0
1.5769163370132446,-2.3995015621185303,11.389189720153809,-7.300534248352051,24.969432830810547,-2.4675610065460205,13.591014862060549,-6.657862663269043,-5.587127685546875,-152.5720977783203,-42.60820007324219,-55.00228500366211,16.7884578704834,-2.649083137512207,-5.5438551902771,-75.99475860595703,-14.121346473693848,-92.6216812133789,10.756959915161133,1.1869031190872192,1.844624757766724,-30.37375259399414,20.71342086791992,-1.560267210006714,132,1.0,0.0,0.0,23.0,68.2,163.0,83.0,1.0
1.3400338888168335,-2.4255175590515137,11.322577476501465,1.5507892370224,27.77847671508789,-3.85815954208374,12.4039888381958,-11.355050086975098,-4.481827259063721,-90.83135223388672,-29.961471557617188,-38.21150970458984,13.795443534851074,-1.4602903127670288,-6.990077018737793,-39.97313690185547,3.3311257362365723,-72.37044525146484,10.65078067779541,1.3435715436935425,1.7551592588424685,-28.507986068725582,21.15009498596192,-4.380346775054932,132,1.0,0.0,0.0,23.0,68.2,163.0,83.0,1.0
0.2057619392871856,-1.545437574386597,9.85114860534668,17.675891876220703,30.94287872314453,-5.102348804473877,9.6917724609375,-11.594964027404783,-2.8459277153015137,-17.527467727661133,-25.25714492797852,-44.040775299072266,9.027252197265623,-0.7579835653305054,-4.915411949157715,-27.88280296325684,3.163603544235229,-67.63175201416016,10.601582527160645,1.0617554187774658,1.886209487915039,-24.53021240234375,20.66393280029297,-5.533909797668457,132,1.0,0.0,0.0,23.0,68.2,163.0,83.0,1.0
-1.5266780853271484,0.2373596429824829,9.053678512573242,20.492197036743164,21.02768898010254,-4.624563694000244,9.240185737609863,-7.758261680603027,-1.8116496801376345,44.79960632324219,-23.562593460083008,-47.12386703491211,8.31955623626709,-2.6268529891967773,-4.038416862487793,-34.29621505737305,-1.3779375553131104,-68.43998718261719,10.127339363098145,0.6418622136116028,1.7615010738372805,-18.25025749206543,18.94823265075684,-5.855033874511719,132,1.0,0.0,0.0,23.0,68.2,163.0,83.0,1.0
-0.8965996503829956,-0.3763977885246277,10.205410957336426,-7.880950450897217,2.5236172676086426,-3.966351985931397,10.16257381439209,-2.563650131225586,-1.0484492778778076,70.74930572509766,-21.74228286743164,-42.65956497192383,9.363161087036133,-4.478272914886475,-3.70006275177002,-26.845827102661133,2.064824342727661,-67.08072662353516,9.677752494812012,-0.015562254935503,1.4838560819625854,-11.527127265930176,18.26486587524414,-5.032737731933594,132,1.0,0.0,0.0,23.0,68.2,163.0,83.0,1.0
0.3877499103546142,-1.2552616596221924,10.51888942718506,7.0561065673828125,0.392666220664978,-4.416675090789795,11.178349494934082,0.6119040250778198,-0.3155579566955566,67.15446472167969,-18.7047061920166,-37.36959838867188,9.933207511901855,-5.042382717132568,-3.283193826675415,-8.294678688049316,8.109166145324707,-65.87399291992188,9.335248947143556,-0.7167792320251465,1.1672484874725342,-6.105744361877441,17.997119903564453,-4.216232776641846,132,1.0,0.0,0.0,23.0,68.2,163.0,83.0,1.0
0.5950338244438171,-0.4022739231586456,10.704619407653809,13.235516548156738,-0.3631714284420013,-5.628767013549805,10.857427597045898,2.0084939002990723,-1.4576561450958252,54.69981384277344,-9.932558059692385,-34.9278678894043,9.610950469970703,-4.732998847961426,-2.63597059249878,11.297483444213867,10.801105499267578,-64.8056869506836,9.30611801147461,-1.3856803178787231,0.7992300987243652,0.9087803959846495,17.86948013305664,-4.324631690979004,132,1.0,0.0,0.0,23.0,68.2,163.0,83.0,1.0
0.8911474943161011,-1.2483127117156982,10.67912769317627,6.995554447174072,-1.4887375831604004,-7.114007472991943,9.635397911071776,1.776109218597412,-2.301366806030273,37.54791259765625,-12.373157501220703,-39.78561782836914,8.78162956237793,-3.915900707244873,-2.622523546218872,23.8604736328125,8.015981674194336,-63.92771530151367,9.231101989746094,-1.869078278541565,0.7261633276939392,4.746767044067383,17.997528076171875,-6.891691207885742,132,1.0,0.0,0.0,23.0,68.2,163.0,83.0,1.0
1.0500980615615845,-1.2508169412612915,10.497364044189451,19.10210418701172,1.987178921699524,-8.075492858886719,9.331947326660156,1.0409222841262815,-3.04500675201416,26.329784393310547,-14.06229019165039,-44.81021118164063,7.66226053237915,-3.0724782943725586,-2.565027475357056,31.965320587158203,4.8720316886901855,-68.74174499511719,9.07191276550293,-2.595067024230957,0.6638808846473694,5.428618431091309,14.85353183746338,-12.122529029846191,132,1.0,0.0,0.0,23.0,68.2,163.0,83.0,1.0
0.8139127492904663,-1.0339820384979248,10.50379467010498,18.97370147705078,3.1189444065093994,-9.308512687683104,9.133881568908691,0.3080041706562042,-3.2741878032684326,16.428979873657227,-15.03398895263672,-46.3719482421875,7.074866771697998,-1.7353769540786743,-2.713129997253418,34.053985595703125,-2.094860792160034,-78.23904418945312,9.130202293395996,-2.847245454788208,0.2707008719444275,6.929614067077637,12.023825645446776,-16.639062881469727,132,1.0,0.0,0.0,23.0,68.2,163.0,83.0,1.0
1.0604665279388428,-0.750033438205719,10.677105903625488,22.602754592895508,4.200223922729492,-10.321401596069336,8.932263374328613,-0.2995165884494781,-2.8170382976531982,17.51335906982422,-14.645800590515137,-43.747196197509766,7.543203353881836,-0.2252830117940902,-2.823992252349853,31.275022506713867,-8.784477233886719,-83.37151336669922,8.864956855773926,-2.499043226242065,0.1857530325651168,8.968610763549805,9.736602783203123,-19.49597549438477,132,1.0,0.0,0.0,23.0,68.2,163.0,83.0,1.0
1.3702055215835571,0.1093841940164566,10.887046813964844,24.00518798828125,8.366920471191406,-10.642938613891602,8.929452896118164,-0.5398903489112854,-2.0809545516967773,21.46254539489746,-15.439716339111328,-40.18570709228516,8.36544418334961,0.6523298025131226,-2.560588836669922,24.9031982421875,-10.427586555480955,-83.33392333984375,8.472192764282227,-1.7846367359161377,-0.0005018133670091,11.824421882629396,6.100968837738037,-21.537254333496094,132,1.0,0.0,0.0,23.0,68.2,163.0,83.0,1.0
0.9761102795600892,0.6372522115707397,10.844943046569824,20.07967758178711,12.029860496520996,-10.028989791870115,9.255351066589355,-0.1284912824630737,-0.8613372445106506,25.384090423583984,-16.857826232910156,-38.49831008911133,9.08887004852295,1.0100609064102173,-1.6627591848373413,16.9500675201416,-10.343923568725586,-81.82831573486328,8.292428970336914,-1.1817715167999268,-0.1568055599927902,14.22206974029541,4.651611804962158,-23.333431243896484,132,1.0,0.0,0.0,23.0,68.2,163.0,83.0,1.0
1.087991714477539,0.7323933839797974,11.369006156921388,9.3837251663208,13.056756019592283,-8.76658821105957,9.65771484375,0.5481626391410828,-0.5280233025550842,26.511558532714844,-16.901729583740234,-39.6530647277832,9.77357006072998,0.4283066689968109,-0.9633935689926147,2.011906862258911,-8.841788291931152,-80.16561889648438,8.21353530883789,-0.3980865478515625,-0.1567448824644088,13.541549682617188,2.8420417308807373,-23.810056686401367,132,1.0,0.0,0.0,23.0,68.2,163.0,83.0,1.0
0.7099850177764893,0.228639617562294,10.694624900817873,9.186471939086914,16.564605712890625,-7.655393123626709,10.050174713134766,0.7467759847640991,-0.1997665017843246,24.423385620117188,-18.97531509399414,-42.4214096069336,9.766735076904297,-0.7146163582801819,-1.0512713193893433,-9.200002670288086,-6.013088226318359,-77.29439544677734,8.185203552246094,0.3481506705284118,-0.2942485213279724,10.086697578430176,1.6010055541992188,-22.91606712341309,132,1.0,0.0,0.0,23.0,68.2,163.0,83.0,1.0
-0.0549989901483058,0.105698749423027,9.738554954528809,7.544649124145508,16.032209396362305,-6.958633899688721,10.313759803771973,0.2468068599700927,-0.2954152524471283,23.240699768066406,-18.4776554107666,-45.100616455078125,9.77750301361084,-1.4046306610107422,-1.154773473739624,-8.57977294921875,-5.59877347946167,-74.12112426757812,8.152541160583496,1.1534250974655151,-0.2887243926525116,6.477624416351318,1.8037424087524407,-21.242095947265625,132,1.0,0.0,0.0,23.0,68.2,163.0,83.0,1.0
-1.2748658657073977,-0.5924067497253418,8.603438377380371,5.517870903015137,9.240567207336426,-6.15887975692749,10.007879257202148,-0.4148545265197754,-0.8138526678085327,22.90614891052246,-16.349618911743164,-46.2156867980957,10.260716438293455,-1.795894980430603,-1.515278697013855,-4.983565330505371,-4.2881364822387695,-69.83025360107422,8.042691230773926,1.702872633934021,-0.2414486855268478,2.919882774353028,2.391076803207397,-18.90361785888672,132,1.0,0.0,0.0,23.0,68.2,163.0,83.0,1.0
-0.7946352362632751,-0.7423284649848938,9.378540992736816,0.2736368775367737,-3.4227406978607178,-4.68654727935791,9.690181732177734,-0.7106261253356934,-1.211887001991272,20.67637252807617,-15.113804817199709,-45.43103790283203,9.964642524719238,-2.593714952468872,-1.36505925655365,-0.3858927190303802,-0.5351986885070801,-67.42943572998047,7.99013614654541,1.8863213062286377,-0.1241090893745422,-0.5936868190765381,2.275940179824829,-16.115760803222656,132,1.0,0.0,0.0,23.0,68.2,163.0,83.0,1.0
0.2478556931018829,-0.6441521048545837,9.769049644470217,7.225801467895508,-6.377445697784424,-4.770434379577637,9.598871231079102,-0.1783487498760223,-1.1080701351165771,20.84247398376465,-14.348803520202637,-41.8584213256836,9.889537811279297,-2.711639165878296,-1.3016518354415894,2.118561029434204,-3.184796094894409,-64.90374755859375,8.017739295959473,1.6651476621627808,-0.0352739207446575,-3.0522189140319824,1.5351768732070925,-13.546527862548828,132,1.0,0.0,0.0,23.0,68.2,163.0,83.0,1.0
0.1988926827907562,-0.000568245537579,9.872149467468262,8.301445007324219,-7.756617546081543,-4.347209453582764,9.396044731140137,0.4380132555961609,-1.2166506052017212,17.62777328491211,-13.300585746765137,-37.870750427246094,9.372349739074709,-2.729292154312134,-1.8779809474945068,13.989907264709473,-2.757549524307251,-64.42520904541016,8.055120468139648,1.248477578163147,-0.0714247897267341,-5.729700565338135,1.1714290380477903,-11.15720558166504,132,1.0,0.0,0.0,23.0,68.2,163.0,83.0,1.0
0.4591653048992157,-0.2196638435125351,10.215743064880373,1.749631643295288,-10.650591850280762,-3.8341050148010254,9.249801635742188,0.7107360363006592,-1.6882925033569336,12.180100440979004,-12.748929977416992,-37.7527961730957,8.887581825256348,-1.594932198524475,-1.2659332752227783,23.70941162109375,-2.6395719051361084,-68.11518096923828,8.115032196044922,0.6338000297546387,-0.138582170009613,-7.555610656738281,1.0707135200500488,-8.900434494018555,132,1.0,0.0,0.0,23.0,68.2,163.0,83.0,1.0
0.931060791015625,-0.305215060710907,10.344120025634766,4.67902946472168,-9.27846336364746,-3.6067280769348153,9.264595985412598,1.056617259979248,-1.389782428741455,7.97920560836792,-14.65114688873291,-39.97698211669922,8.660380363464355,-1.141931653022766,-1.1875674724578855,16.8941707611084,-2.660088062286377,-67.4654312133789,8.083185195922852,0.0926047563552856,-0.1004645377397537,-7.954860210418701,0.7505354881286621,-7.535298824310303,132,1.0,0.0,0.0,23.0,68.2,163.0,83.0,1.0
0.6454479694366455,-0.0808469280600547,10.219528198242188,5.891248226165772,-7.545171737670898,-3.04774808883667,9.368671417236328,1.0287457704544067,-1.2094837427139282,3.694270610809326,-14.574206352233888,-41.53956604003906,8.396448135375977,-1.035435914993286,-1.6671011447906494,16.013320922851562,-3.342915773391724,-68.82847595214844,8.141709327697754,-0.3225554823875427,-0.1100531220436096,-7.513808250427246,-0.4105449914932251,-7.089508533477783,132,1.0,0.0,0.0,23.0,68.2,163.0,83.0,1.0
0.4147965312004089,-0.0362037122249603,10.289471626281738,2.411580801010132,-8.803524017333984,-2.493303060531616,9.329265594482422,0.5000203251838684,-1.3853002786636353,3.5607426166534424,-14.820354461669922,-41.25828552246094,8.54069995880127,-1.1483888626098633,-1.7220317125320437,15.964066505432127,-3.614530563354492,-69.82695770263672,8.163052558898926,-0.581780731678009,-0.2936552464962005,-7.120245456695557,-2.0612289905548096,-7.152084827423096,132,1.0,0.0,0.0,23.0,68.2,163.0,83.0,1.0
0.2970779836177826,-0.3257257342338562,10.040169715881348,2.4842991828918457,-10.25467300415039,-1.9262290000915527,9.575105667114258,0.0609383285045623,-1.2949053049087524,6.905841827392578,-16.184064865112305,-41.44740676879883,8.911172866821289,-1.3781802654266355,-1.7051230669021606,17.289358139038086,-4.290186882019043,-71.58013153076172,8.360288619995117,-0.673869252204895,-0.5101069211959839,-5.501783847808838,-3.175268650054932,-7.804862499237059,132,1.0,0.0,0.0,23.0,68.2,163.0,83.0,1.0
0.3561484217643738,-0.0651526525616645,10.380523681640623,2.557530403137207,-12.55734157562256,-1.612967014312744,9.92194938659668,-0.2103509902954101,-1.308760643005371,11.259322166442873,-15.951973915100098,-42.26191711425781,9.519755363464355,-1.02495014667511,-1.3887313604354858,20.14208602905273,-6.145153999328613,-73.1142578125,8.65928840637207,-0.4760627746582031,-0.3583934903144836,-3.391324520111084,-4.229243278503418,-8.394322395324707,132,1.0,0.0,0.0,23.0,68.2,163.0,83.0,1.0
0.3270277976989746,-0.1934125870466232,10.279985427856444,1.7463535070419312,-13.902962684631348,-1.3523167371749878,9.90992832183838,0.0490435361862182,-1.3412132263183594,14.641793251037598,-15.99498176574707,-42.55963516235352,10.118511199951172,-0.7873899936676025,-1.6025065183639526,20.011682510375977,-6.192131519317627,-72.05451965332031,8.821019172668457,-0.227182000875473,-0.2623963356018066,-2.134460210800171,-6.919021129608154,-8.007139205932617,132,1.0,0.0,0.0,23.0,68.2,163.0,83.0,1.0
-0.0708827748894691,-0.1227338165044784,9.998686790466309,4.066235542297363,-16.880542755126953,-0.9373915791511536,9.95114803314209,0.3723453283309936,-1.3107637166976929,13.62270164489746,-16.956106185913086,-43.531341552734375,10.35154151916504,-1.1477808952331543,-1.7721575498580933,20.642940521240234,-5.509480953216553,-69.78764343261719,8.835670471191406,0.0435990020632743,-0.3299245834350586,-1.8994237184524536,-11.035381317138672,-7.248726367950439,132,1.0,0.0,0.0,23.0,68.2,163.0,83.0,1.0
-0.0467711687088012,0.1115766912698745,10.33245086669922,0.3799360990524292,-23.57259750366211,-0.2196549624204635,10.081513404846191,0.7941197752952576,-1.524761199951172,11.682700157165527,-15.976666450500488,-44.60696029663086,10.256418228149414,-1.68079674243927,-1.9256830215454104,21.06429481506348,-4.337777614593506,-68.1180191040039,8.72923469543457,0.4074562788009643,-0.4359001815319061,-3.095711231231689,-14.661513328552246,-5.781620502471924,132,1.0,0.0,0.0,23.0,68.2,163.0,83.0,1.0
-0.0383964702486991,-0.145579382777214,10.28727912902832,-2.2710494995117188,-30.64729118347168,0.6457096934318542,10.09688663482666,0.9945958852767944,-1.606959581375122,6.445809841156006,-16.73444175720215,-45.84346389770508,10.049687385559082,-1.948779940605164,-2.15665340423584,25.231828689575195,-4.511545181274414,-68.09144592285156,8.549298286437988,0.751771867275238,-0.7032274007797241,-5.922397613525391,-19.247209548950195,-4.031195640563965,132,1.0,0.0,0.0,23.0,68.2,163.0,83.0,1.0
0.0848127454519271,-0.1023164615035057,9.89976978302002,0.844297468662262,-36.84495544433594,1.637238383293152,10.133159637451172,1.0069509744644165,-1.5123775005340576,1.1658601760864258,-16.848966598510742,-47.3955192565918,10.070526123046877,-1.4777096509933472,-2.224759101867676,29.19627571105957,-5.142096042633057,-69.3118896484375,8.426525115966797,1.175204157829285,-1.013523817062378,-10.326742172241213,-22.935203552246094,-1.6310385465621948,132,1.0,0.0,0.0,23.0,68.2,163.0,83.0,1.0
-0.2601754665374756,0.3298065960407257,9.86375331878662,-0.6647546291351318,-45.44125747680664,2.8399577140808105,10.027792930603027,1.0316267013549805,-1.3182679414749146,-3.78667664527893,-16.295881271362305,-49.4632453918457,10.13079833984375,-1.0174204111099243,-2.100635766983032,28.70819091796875,-5.074140548706055,-68.70451354980469,8.28834342956543,1.465324878692627,-1.1887212991714478,-17.457548141479492,-23.97153854370117,0.7746391296386719,132,1.0,0.0,0.0,23.0,68.2,163.0,83.0,1.0
-0.0863564535975456,0.3114011883735657,9.586764335632324,-6.490036964416504,-54.23249816894531,3.656518220901489,10.015181541442873,0.6950123310089111,-1.4319853782653809,-7.879997730255127,-16.848386764526367,-53.10490036010742,9.9625244140625,-1.291366457939148,-1.840151309967041,25.494606018066406,-4.613337516784668,-67.39813232421875,8.238991737365723,1.6445308923721311,-1.110737681388855,-25.67181968688965,-24.78638458251953,3.0437557697296143,132,1.0,0.0,0.0,23.0,68.2,163.0,83.0,1.0
-0.2074474990367889,-0.190002292394638,9.473169326782228,-9.437277793884276,-62.07463073730469,3.664795160293579,10.070818901062012,-0.0321010798215866,-1.0276143550872805,-13.67337417602539,-21.597755432128903,-57.38498306274414,9.590127944946287,-1.8914055824279783,-1.5066771507263184,23.36773681640625,-4.593254089355469,-66.34706115722656,8.203070640563965,1.7470146417617798,-0.969389021396637,-33.42542266845703,-25.509078979492188,4.549594402313232,132,1.0,0.0,0.0,23.0,68.2,163.0,83.0,1.0
0.1260774433612823,-0.2217901647090912,9.621953964233398,-9.606775283813477,-69.09835815429688,3.803090333938599,10.315603256225586,-1.4282034635543823,-0.6677889227867126,-19.36916732788086,-20.665098190307617,-62.07157897949219,9.15798282623291,-2.4513180255889893,-1.304043531417847,25.29887962341309,-5.974738121032715,-66.2840805053711,8.236674308776855,1.8515300750732424,-0.8707243800163269,-41.70372009277344,-24.863656997680664,5.783001899719238,132,1.0,0.0,0.0,23.0,68.2,163.0,83.0,1.0
0.1280561983585357,-0.0558247193694114,9.273207664489746,-6.723832607269287,-73.11341857910156,3.955599546432495,9.82839012145996,-2.109604358673096,-0.8821264505386353,-18.30443000793457,-18.23209571838379,-64.53104400634766,9.079575538635254,-2.535176038742065,-0.8538485765457153,28.22650146484375,-6.66148567199707,-65.6884765625,8.22378921508789,1.7814193964004517,-0.4691007137298584,-50.00367736816406,-22.573705673217773,6.15364408493042,132,1.0,0.0,0.0,23.0,68.2,163.0,83.0,1.0
0.3209864795207977,0.1099099218845367,9.441908836364746,-13.283658027648926,-79.83941650390625,5.156713008880615,9.456499099731444,-2.5557093620300293,-0.5603011250495911,-17.696557998657227,-19.616199493408203,-66.8597183227539,8.875999450683594,-2.613704204559326,-1.0501285791397097,23.073139190673828,-7.530320167541504,-62.92698287963867,8.144038200378418,1.5990008115768433,-0.3691822588443756,-56.75547409057617,-23.25329971313477,6.733019828796387,132,1.0,0.0,0.0,23.0,68.2,163.0,83.0,1.0
0.885752260684967,-0.0489419847726821,9.5421781539917,-19.26949691772461,-83.96488189697266,6.755568504333496,9.312456130981444,-2.4883415699005127,-0.7219259738922119,-12.767539978027344,-18.979711532592773,-70.53160095214844,8.6078519821167,-2.446619033813477,-1.539026379585266,20.79002571105957,-7.9598708152771,-61.843204498291016,7.9816155433654785,1.5451511144638062,-0.8809053301811218,-63.56485748291016,-25.23611831665039,7.441234111785889,132,1.0,0.0,0.0,23.0,68.2,163.0,83.0,1.0
1.579914927482605,0.0664407014846801,10.149431228637695,-22.82332229614257,-84.70195770263672,8.97249698638916,9.142598152160645,-1.6149287223815918,-0.8320770263671875,-8.57688045501709,-20.09445571899414,-74.08623504638672,8.352302551269531,-2.033420324325561,-1.7426966428756714,19.457813262939453,-8.135018348693848,-57.50825881958008,8.058598518371582,1.4969364404678345,-1.6579943895339966,-71.11617279052734,-26.01592063903809,6.782516956329346,132,1.0,0.0,0.0,23.0,68.2,163.0,83.0,1.0
1.6265969276428225,0.5722640752792358,9.876355171203612,-16.872522354125977,-81.73338317871094,9.431835174560549,9.094121932983398,-0.3995069563388824,-0.7997666001319885,-6.2462077140808105,-21.014589309692383,-77.19286346435547,8.316649436950684,-1.679418444633484,-1.2724837064743042,21.338302612304688,-8.85623550415039,-50.15755844116211,8.169679641723633,1.359998106956482,-1.949225187301636,-73.9405288696289,-25.58250999450684,4.260297775268555,132,1.0,0.0,0.0,23.0,68.2,163.0,83.0,1.0
1.8747689723968504,0.8655497431755066,10.366132736206056,-26.44488906860352,-82.41615295410156,11.292187690734863,8.916379928588867,1.042251706123352,-0.9069289565086364,-10.31126594543457,-21.8300838470459,-79.94192504882812,8.549761772155762,-0.7609586119651794,-1.1148734092712402,21.127944946289062,-8.10409164428711,-42.54019927978516,8.502095222473145,0.9175377488136292,-1.968278765678405,-71.6019515991211,-23.19524002075196,1.7645862102508545,132,1.0,0.0,0.0,23.0,68.2,163.0,83.0,1.0
2.4763333797454834,-0.1745022535324096,10.756048202514648,-39.92535781860352,-83.3818130493164,13.375113487243652,8.634454727172852,2.802633762359619,-0.8582561612129211,-18.88894462585449,-23.25194931030273,-81.0983657836914,8.519599914550781,0.2698460221290588,-1.00738263130188,14.06369686126709,-3.1947274208068848,-37.65217590332031,8.920820236206055,0.5473782420158386,-2.0379929542541504,-64.62005615234375,-20.98088264465332,0.0883054286241531,132,1.0,0.0,0.0,23.0,68.2,163.0,83.0,1.0
2.7700440883636475,-0.865136444568634,10.53044319152832,-25.70858764648437,-78.42839050292969,14.510936737060549,8.78951644897461,3.8282413482666016,-1.3992692232131958,-32.42080307006836,-24.323650360107425,-82.63253021240234,8.3860445022583,0.8008619546890259,-0.927591860294342,-0.0628445819020271,0.7258567810058594,-35.58180618286133,9.38598346710205,-0.0072246342897415,-2.2133166790008545,-54.59375762939453,-18.09868812561035,-0.0006403577281162,132,1.0,0.0,0.0,23.0,68.2,163.0,83.0,1.0
2.474645137786865,-0.4721945226192474,10.740381240844728,-21.020124435424805,-76.46684265136719,14.231019020080566,9.370224952697754,3.3674166202545166,-2.241157293319702,-40.58111572265625,-25.88907623291016,-84.93353271484375,8.639046669006348,1.1633315086364746,-1.6692098379135132,-12.28364372253418,2.3721120357513428,-35.85376739501953,9.810267448425291,-0.4874015152454376,-2.340266466140747,-47.43415451049805,-14.028459548950195,0.6938782930374146,132,1.0,0.0,0.0,23.0,68.2,163.0,83.0,1.0
1.9630807638168333,-0.537433385848999,10.256382942199709,-17.86799430847168,-78.07308959960938,14.430325508117676,9.6876220703125,2.8529090881347656,-2.3972301483154297,-42.913116455078125,-26.768171310424805,-85.85693359375,9.185229301452637,1.341038703918457,-2.366426467895508,-22.14124870300293,2.892825126647949,-36.51229095458984,10.226890563964844,-0.6755021214485168,-2.3906283378601074,-44.44623565673828,-11.967019081115724,1.6843568086624146,132,1.0,0.0,0.0,23.0,68.2,163.0,83.0,1.0
2.3345882892608643,-0.5816649198532104,10.407649040222168,-23.78892707824707,-81.22540283203125,14.92220687866211,9.87087345123291,2.456960439682007,-2.8740830421447754,-39.65589141845703,-26.16855430603028,-84.91165161132812,9.717947006225586,1.4980497360229492,-2.483176946640014,-26.134984970092773,4.142496109008789,-39.17555236816406,10.640702247619627,-0.9527019262313844,-2.480698823928833,-42.558589935302734,-11.482625961303713,2.198512077331543,132,1.0,0.0,0.0,23.0,68.2,163.0,83.0,1.0
2.57424259185791,-0.6132227778434753,10.399436950683594,-19.85985565185547,-81.12991333007812,15.316566467285156,9.98050308227539,3.111326217651367,-2.850531101226806,-35.39244842529297,-24.26123809814453,-81.75798797607422,9.995047569274902,1.792398452758789,-2.0892815589904785,-26.19195938110352,5.323546409606934,-42.95123672485352,11.316508293151855,-1.0195209980010986,-2.4959490299224854,-35.61123275756836,-10.832913398742676,0.9338577389717102,132,1.0,0.0,0.0,23.0,68.2,163.0,83.0,1.0
3.7963597774505615,0.1981591284275055,12.195405960083008,-29.68831253051757,-80.44677734375,17.262725830078125,9.80939769744873,3.7725589275360094,-3.1546733379364014,-34.571502685546875,-22.98828315734864,-78.38683319091797,9.906338691711426,1.7470521926879885,-2.309823989868164,-29.90822029113769,5.898231506347656,-46.93320846557617,12.223237991333008,-1.3580409288406372,-2.3640735149383545,-24.79415702819824,-3.347372531890869,-2.9313204288482666,132,1.0,0.0,0.0,23.0,68.2,163.0,83.0,1.0
3.1992664337158203,-0.4490080773830414,10.565325736999512,-26.30248069763184,-76.25477600097656,20.16172790527344,9.98961353302002,4.324532985687256,-3.002209186553955,-34.86460876464844,-23.222806930541992,-77.97130584716797,9.586475372314451,1.3762495517730713,-2.8294155597686768,-32.63627243041992,5.833688259124756,-53.7563362121582,13.985976219177246,-2.2250723838806152,-1.5903127193450928,-5.631522178649902,17.74689292907715,-9.077893257141112,132,1.0,0.0,0.0,23.0,68.2,163.0,83.0,1.0
2.4878592491149902,-0.1229231357574462,11.30183219909668,-39.25924301147461,-79.39134979248047,25.18871307373047,10.491376876831056,4.664012432098389,-3.539701461791992,-38.99837112426758,-20.09846878051757,-78.69159698486328,9.420095443725586,1.1293705701828003,-3.003244161605835,-37.777870178222656,4.738833904266357,-60.38297271728516,15.576408386230469,-3.397099733352661,-0.4750277400016784,27.17787742614746,39.41943740844727,-16.08149528503418,132,1.0,0.0,0.0,23.0,68.2,163.0,83.0,1.0
2.277754306793213,-0.3873369395732879,11.268016815185549,-44.38969802856445,-87.71185302734375,32.406925201416016,11.164640426635742,4.616096019744873,-3.463327169418335,-43.26958084106445,-19.661911010742188,-80.97346496582031,9.743292808532717,0.9494171142578124,-3.797100782394409,-39.64378356933594,4.019919395446777,-66.41802215576172,17.016206741333008,-4.314043045043945,2.1348042488098145,66.01776885986328,51.21303939819336,-22.696537017822266,132,1.0,0.0,0.0,23.0,68.2,163.0,83.0,1.0
1.479016661643982,-0.8952419757843018,11.190644264221191,-49.67818069458008,-95.9686050415039,34.978477478027344,12.84677505493164,3.9549977779388414,-3.0696253776550293,-47.54893493652344,-17.330032348632812,-83.70406341552734,10.418195724487305,0.5012142658233643,-4.517727851867676,-41.611236572265625,3.4799699783325195,-68.7415771484375,17.496553421020508,-4.64599084854126,3.746170997619629,76.64407348632812,39.90650939941406,-26.717988967895508,132,1.0,0.0,0.0,23.0,68.2,163.0,83.0,1.0
1.5682252645492554,-1.8076001405715945,10.949271202087402,-58.561134338378906,-110.31423950195312,28.79133033752441,14.372906684875488,2.998875856399536,-1.7131593227386477,-49.16205978393555,-12.067856788635254,-86.6800765991211,11.84113597869873,-0.477165549993515,-4.821579456329346,-34.795074462890625,2.1563708782196045,-66.48673248291016,16.24855613708496,-3.668946266174317,2.5517830848693848,63.53584671020508,15.298078536987305,-28.24594116210937,132,1.0,0.0,0.0,23.0,68.2,163.0,83.0,1.0
1.628205180168152,-1.5783452987670898,10.837990760803224,-48.633636474609375,-117.1735610961914,26.10567092895508,14.73688793182373,1.4637985229492188,-1.3284837007522583,-54.33915328979492,-5.716882705688477,-88.42792510986328,13.593147277832031,-0.7819368839263916,-3.831678628921509,-23.50994873046875,4.116146087646484,-61.46104049682617,14.20111846923828,-1.4081430435180664,-0.263407438993454,36.47005844116211,-0.2228698432445526,-23.68805885314941,132,1.0,0.0,0.0,23.0,68.2,163.0,83.0,1.0
1.89831292629242,-0.2988547682762146,11.199240684509276,-59.20417022705078,-132.30101013183594,24.53268241882324,14.038528442382812,-0.4763563275337219,-2.531013965606689,-54.03163909912109,-6.53403377532959,-87.0456771850586,14.555670738220217,-0.9703712463378906,-2.3715388774871826,-15.235662460327148,8.096787452697754,-57.72039413452149,12.220849990844728,0.8626388907432556,-1.1461820602416992,8.716950416564941,-5.305658340454102,-19.905548095703125,132,1.0,0.0,0.0,23.0,68.2,163.0,83.0,1.0
2.4238405227661133,-1.7499090433120728,10.951766967773438,-68.13188934326172,-144.50152587890625,23.32132148742676,14.378721237182615,-0.7274786233901978,-0.2718713283538818,-51.24064254760742,-13.17430591583252,-89.76396942138672,14.629908561706545,-1.5046395063400269,-1.4205992221832275,-12.176183700561523,11.073704719543455,-54.14553451538086,11.845101356506348,2.615803003311157,0.1448605358600616,-20.783071517944336,-7.3428120613098145,-16.73709487915039,132,1.0,0.0,0.0,23.0,68.2,163.0,83.0,1.0
2.0442423820495605,-1.0537511110305786,10.516677856445312,-64.46138000488281,-155.2078857421875,21.5799503326416,15.293212890625,-0.2143576890230178,0.390490174293518,-56.09503173828125,-11.362672805786133,-100.68771362304688,13.765203475952148,-1.9351798295974727,-0.975389301776886,-13.926915168762209,10.361443519592283,-50.288177490234375,11.393192291259766,3.430384635925293,-0.3976968824863434,-31.271223068237305,0.2659400701522827,-14.3532075881958,132,1.0,0.0,0.0,23.0,68.2,163.0,83.0,1.0
1.6071031093597412,-2.190075397491455,11.126689910888672,-83.99600219726562,-175.03746032714844,18.2797794342041,14.934576988220217,-0.8056653738021851,1.223239541053772,-75.02355194091797,-15.746294021606444,-114.6417236328125,12.830544471740724,-1.844752073287964,-0.6873553991317749,-25.916580200195312,10.65498161315918,-41.52866744995117,11.462912559509276,3.868866443634033,0.1490318477153778,-26.68183135986328,5.96421480178833,-14.708780288696287,132,1.0,0.0,0.0,23.0,68.2,163.0,83.0,1.0
1.7075648307800293,-3.0897507667541504,10.21837329864502,-62.04402542114258,-187.38082885742188,14.258423805236816,15.583207130432127,-2.1128828525543213,1.1583564281463623,-95.29773712158205,-21.391515731811523,-128.5835418701172,11.923590660095217,-2.477921485900879,-0.6563400030136108,-53.85885238647461,15.186293601989746,-22.540611267089844,12.304089546203612,3.8123373985290527,1.414416790008545,-24.27239990234375,7.647276401519775,-16.613636016845703,132,1.0,0.0,0.0,23.0,68.2,163.0,83.0,1.0
2.029139995574951,-1.602790594100952,11.668437957763672,-67.0023193359375,-204.2302703857422,11.63784122467041,15.791961669921877,-5.653889179229736,2.135008811950684,-131.58580017089844,-30.83388900756836,-143.28623962402344,11.868204116821287,-3.7915053367614746,-0.4042862057685852,-84.39238739013672,21.902008056640625,3.017863750457764,12.811034202575684,3.034356117248535,1.3349467515945437,-20.551729202270508,14.581414222717283,-19.21771049499512,132,1.0,0.0,0.0,23.0,68.2,163.0,83.0,1.0
2.829252243041992,-3.1717679500579834,11.038784980773926,-72.65188598632812,-216.5742950439453,7.145086765289307,18.64856338500977,-8.235458374023438,2.04044771194458,-109.40555572509766,-31.09524917602539,-157.0376739501953,12.184489250183104,-5.136145114898682,-0.2418906390666961,-114.77620697021484,31.59170913696289,31.59995651245117,12.39023780822754,1.6822859048843384,2.0419607162475586,-15.542790412902832,27.2220401763916,-21.89459228515625,132,1.0,0.0,0.0,23.0,68.2,163.0,83.0,1.0
2.456897258758545,-3.466794013977051,11.951094627380373,-69.68753814697266,-229.41368103027344,1.5021716356277466,18.16974449157715,-9.606779098510742,1.6606528759002686,-94.18828582763672,-31.715557098388672,-169.3488311767578,11.827868461608888,-6.931247711181641,-0.6392241716384888,-132.3463592529297,39.474239349365234,58.64192962646485,11.500890731811523,0.2880674004554748,3.1095080375671387,-15.141287803649902,31.843292236328125,-22.11052322387696,132,1.0,0.0,0.0,23.0,68.2,163.0,83.0,1.0
3.6330413818359375,-4.922758102416992,10.655311584472656,-66.69022369384766,-241.0355224609375,-10.546130180358888,18.570798873901367,-11.328886032104492,3.19146728515625,-64.41472625732422,-36.96405792236328,-185.004135131836,10.933547019958496,-8.551131248474121,-0.5608539581298828,-135.7340850830078,44.965423583984375,81.20377349853516,10.254746437072754,-0.945865273475647,3.2170121669769287,-16.802631378173828,32.114219665527344,-20.83928871154785,132,1.0,0.0,0.0,23.0,68.2,163.0,83.0,1.0
4.656291961669922,-4.264257907867432,11.931137084960938,-63.96446990966797,-256.6853332519531,-25.05223846435547,17.628646850585938,-10.479209899902344,3.120878934860229,-21.60479164123535,-33.046382904052734,-195.65725708007807,9.88148307800293,-9.746065139770508,-0.2642574310302734,-130.89024353027344,48.54890823364258,98.86610412597656,8.967326164245605,-1.9560480117797847,3.003152847290039,-14.145484924316406,34.719093322753906,-20.994897842407227,132,1.0,0.0,0.0,23.0,68.2,163.0,83.0,1.0
5.866508960723877,-2.0161118507385254,16.466075897216797,-86.42283630371094,-334.62213134765625,-60.83169555664063,15.744970321655272,-9.490283966064451,2.9186666011810303,14.238059997558594,-35.79739761352539,-204.1649780273437,9.008259773254396,-10.359188079833984,0.0286974497139453,-111.81641387939452,49.184814453125,113.37480926513672,7.726845741271973,-2.7093539237976074,3.020005941390991,-5.6336283683776855,35.76465606689453,-20.43460464477539,132,1.0,0.0,0.0,23.0,68.2,163.0,83.0,1.0
6.237614631652832,-14.661766052246094,39.62209701538086,-361.5242614746094,-457.87060546875,-112.64118957519533,13.629278182983398,-6.4235148429870605,1.797664761543274,64.66195678710938,-32.12234115600586,-209.4058532714844,8.439242362976074,-9.96169090270996,-0.0025958959013223,-81.89674377441406,48.078346252441406,124.78936004638672,6.906105995178223,-2.945519208908081,3.2848470211029053,-2.528563499450684,32.90143966674805,-19.585643768310547,132,1.0,0.0,0.0,23.0,68.2,163.0,83.0,1.0
4.041242599487305,-47.37003707885742,11.429611206054688,121.53119659423828,-457.3403015136719,-148.2961883544922,12.588109970092772,-1.67570161819458,-0.9571393132209778,115.5879364013672,-29.521106719970703,-211.60601806640625,8.315980911254883,-8.903170585632324,-0.4159813225269317,-44.52656936645508,44.80232620239258,134.95521545410156,6.3974151611328125,-2.844346284866333,3.186638116836548,-2.49009108543396,33.53508377075195,-19.488460540771484,132,1.0,0.0,0.0,23.0,68.2,163.0,83.0,1.0
12.649410247802734,-2.030317544937134,23.86396789550781,425.7835693359375,-412.8199462890625,-130.4371795654297,12.920772552490234,-0.1383625864982605,-7.240139484405518,161.6569061279297,-42.74950408935547,-216.7508544921875,8.778032302856445,-8.254076957702637,-0.928888201713562,-4.515352249145508,37.88434219360352,143.6164093017578,6.47960090637207,-2.7352066040039062,2.924307107925415,-2.379027366638184,32.77848434448242,-18.562145233154297,132,1.0,0.0,0.0,23.0,68.2,163.0,83.0,1.0
20.424861907958984,-2.8470327854156494,41.69343566894531,27.287755966186523,-288.77838134765625,40.869964599609375,13.396920204162598,-0.7068156599998474,-7.658703327178955,171.7715606689453,-72.6995620727539,-212.9793395996093,10.71118450164795,-7.65071964263916,-1.0993969440460205,34.31253433227539,28.00673484802246,151.7259521484375,7.0275044441223145,-2.1462860107421875,2.695922613143921,-1.82166051864624,29.623289108276367,-15.478082656860352,132,1.0,0.0,0.0,23.0,68.2,163.0,83.0,1.0
3.2426624298095703,-8.17664909362793,25.149093627929688,136.8990478515625,-192.2718963623047,90.0588607788086,12.777759552001951,2.850522518157959,-6.342145442962647,178.78102111816406,-77.86011505126953,-193.71388244628903,13.488636016845703,-6.054161071777344,-1.493656873703003,72.22474670410156,20.38966178894043,158.40492248535156,8.123164176940918,-1.0805678367614746,2.067262649536133,-0.7869978547096252,26.35454368591309,-11.968055725097656,132,1.0,0.0,0.0,23.0,68.2,163.0,83.0,1.0
-9.77578353881836,3.4321324825286865,20.45309257507324,48.46607971191406,-181.3710784912109,89.03569030761719,11.954256057739258,9.170045852661133,-5.919289588928223,169.64549255371094,-73.6819839477539,-158.97068786621094,15.476421356201172,-4.272500514984131,-2.3802385330200195,106.99436950683594,16.476116180419922,157.57373046875,8.823220252990723,-0.3481442928314209,1.6116538047790527,-2.000805854797364,23.99359893798828,-8.05475902557373,132,1.0,0.0,0.0,23.0,68.2,163.0,83.0,1.0
-2.803430557250977,-2.749315023422241,25.415264129638672,-136.44049072265625,-184.1869964599609,67.28926086425781,12.40379810333252,13.194929122924805,-1.1669058799743652,120.30596923828124,-82.47726440429688,-141.56431579589844,15.73538589477539,-3.1065833568573,-2.7232227325439453,134.93128967285156,13.894511222839355,144.43533325195312,9.853753089904783,0.1261301040649414,1.0605345964431765,-2.591700553894043,22.196651458740234,-3.654717206954956,132,1.0,0.0,0.0,23.0,68.2,163.0,83.0,1.0
-4.420653820037842,-12.048486709594728,25.044782638549805,-21.752439498901367,-116.21478271484376,58.91094970703125,13.217068672180176,9.152426719665527,-1.6719481945037842,31.256328582763672,-81.61625671386719,-141.90345764160156,15.142016410827637,-1.0451805591583252,-0.9105748534202576,142.73036193847656,4.587009906768799,120.50176239013672,10.755043029785156,0.1087343916296958,0.7327443957328796,-5.674015998840332,21.620407104492188,0.8827309608459473,132,1.0,0.0,0.0,23.0,68.2,163.0,83.0,1.0
-8.812655448913574,-2.838083505630493,20.647974014282227,104.03467559814452,-52.80631256103516,40.51988220214844,10.199873924255373,5.468577861785889,-5.671362400054932,39.25081634521485,-59.06028366088867,-129.320556640625,15.617440223693848,2.178187847137451,1.52253258228302,124.31717681884766,-5.457993030548096,102.32276153564452,11.278542518615724,0.1948676705360412,1.0529203414916992,-12.643168449401855,20.457090377807617,3.83707857131958,132,1.0,0.0,0.0,23.0,68.2,163.0,83.0,1.0
